'sample interval','PLETH','II'
'0.008 sec','mV','mV'
146001,0.07050000,0.03900000
146002,0.12700000,0.05550000
146003,0.19950000,0.06100000
146004,0.27800000,0.07450000
146005,0.36500000,0.07200000
146006,0.45150000,0.08850000
146007,0.54000000,0.08000000
146008,0.61900000,0.09650000
146009,0.69150000,0.08850000
146010,0.75200000,0.09950000
146011,0.79800000,0.08000000
146012,0.83850000,0.08550000
146013,0.86050000,0.06900000
146014,0.87700000,0.06650000
146015,0.88100000,0.05000000
146016,0.87500000,0.04700000
146017,0.86050000,0.03350000
146018,0.84250000,0.03050000
146019,0.81450000,0.02500000
146020,0.78000000,0.01950000
146021,0.74200000,0.01700000
146022,0.70150000,0.01150000
146023,0.65700000,0.01150000
146024,0.60700000,0.00600000
146025,0.55850000,0.01150000
146026,0.50600000,0.00850000
146027,0.45350000,0.01700000
146028,0.39700000,0.00600000
146029,0.34250000,0.01950000
146030,0.28850000,0.00850000
146031,0.23000000,0.01400000
146032,0.17550000,0.00350000
146033,0.12300000,0.01700000
146034,0.06850000,0.01150000
146035,0.01600000,0.02250000
146036,-0.03200000,0.01950000
146037,-0.07650000,0.03050000
146038,-0.12100000,0.01950000
146039,-0.15500000,0.03900000
146040,-0.18950000,0.03350000
146041,-0.21750000,0.03900000
146042,-0.24200000,0.03050000
146043,-0.26000000,0.03900000
146044,-0.27400000,0.03900000
146045,-0.28200000,0.03350000
146046,-0.29000000,0.01950000
146047,-0.29850000,0.00600000
146048,-0.30250000,0.00350000
146049,-0.30450000,0.00100000
146050,-0.30450000,0.00100000
146051,-0.30650000,0.00100000
146052,-0.30850000,0.00100000
146053,-0.31250000,0.00100000
146054,-0.31050000,0.00100000
146055,-0.31250000,0.00100000
146056,-0.31450000,0.02500000
146057,-0.31450000,0.05250000
146058,-0.31650000,0.06100000
146059,-0.31850000,-0.01250000
146060,-0.32050000,-0.07300000
146061,-0.32250000,-0.18250000
146062,-0.32450000,-0.27600000
146063,-0.32650000,-0.33050000
146064,-0.33050000,-0.30600000
146065,-0.33250000,-0.27900000
146066,-0.33650000,-0.25950000
146067,-0.34050000,-0.26800000
146068,-0.34250000,-0.25700000
146069,-0.34650000,-0.23200000
146070,-0.34850000,-0.15800000
146071,-0.35050000,-0.08150000
146072,-0.35250000,-0.02650000
146073,-0.35250000,0.00100000
146074,-0.35450000,0.00100000
146075,-0.35450000,0.00350000
146076,-0.35850000,0.00100000
146077,-0.35650000,0.00600000
146078,-0.36050000,0.00350000
146079,-0.36500000,0.01150000
146080,-0.36500000,0.00100000
146081,-0.37100000,0.01150000
146082,-0.37300000,0.00600000
146083,-0.37700000,0.01700000
146084,-0.37900000,0.01150000
146085,-0.37900000,0.02250000
146086,-0.37700000,0.01700000
146087,-0.36700000,0.03050000
146088,-0.34850000,0.02500000
146089,-0.32250000,0.04150000
146090,-0.28000000,0.03900000
146091,-0.22950000,0.05550000
146092,-0.16500000,0.05550000
146093,-0.09050000,0.06650000
146094,-0.00600000,0.07200000
146095,0.07850000,0.07750000
146096,0.16750000,0.08300000
146097,0.25400000,0.08850000
146098,0.32850000,0.09650000
146099,0.40100000,0.09400000
146100,0.45750000,0.09400000
146101,0.50400000,0.08850000
146102,0.53800000,0.08300000
146103,0.56250000,0.06650000
146104,0.57450000,0.06650000
146105,0.57650000,0.05000000
146106,0.57250000,0.05000000
146107,0.56250000,0.03350000
146108,0.54450000,0.03050000
146109,0.52000000,0.01700000
146110,0.49400000,0.02250000
146111,0.46150000,0.01150000
146112,0.42750000,0.02250000
146113,0.38900000,0.01150000
146114,0.34650000,0.01400000
146115,0.30250000,0.00600000
146116,0.25600000,0.01700000
146117,0.20750000,0.00600000
146118,0.15950000,0.01150000
146119,0.10900000,0.01150000
146120,0.05850000,0.00850000
146121,0.00800000,0.00850000
146122,-0.03800000,0.00600000
146123,-0.08450000,0.01150000
146124,-0.12900000,0.01150000
146125,-0.17150000,0.01700000
146126,-0.20550000,0.01150000
146127,-0.24200000,0.02250000
146128,-0.27000000,0.01950000
146129,-0.29600000,0.03350000
146130,-0.32250000,0.03600000
146131,-0.34050000,0.04150000
146132,-0.35450000,0.02800000
146133,-0.36900000,0.04150000
146134,-0.37700000,0.03600000
146135,-0.38700000,0.04150000
146136,-0.38900000,0.01950000
146137,-0.39100000,0.01950000
146138,-0.39300000,0.00100000
146139,-0.39100000,0.00100000
146140,-0.38900000,0.00100000
146141,-0.38700000,0.00100000
146142,-0.38500000,0.00100000
146143,-0.38300000,0.00100000
146144,-0.37900000,0.00100000
146145,-0.37700000,0.00100000
146146,-0.37500000,0.00100000
146147,-0.37100000,0.04450000
146148,-0.36900000,0.06900000
146149,-0.36700000,0.01950000
146150,-0.36700000,-0.04550000
146151,-0.36500000,-0.13050000
146152,-0.36700000,-0.23750000
146153,-0.36500000,-0.30900000
146154,-0.36700000,-0.31700000
146155,-0.36700000,-0.29000000
146156,-0.37100000,-0.25400000
146157,-0.37300000,-0.26500000
146158,-0.37100000,-0.25150000
146159,-0.37300000,-0.25150000
146160,-0.37500000,-0.18800000
146161,-0.37500000,-0.12000000
146162,-0.37500000,-0.04850000
146163,-0.37500000,-0.01550000
146164,-0.37500000,0.00100000
146165,-0.37500000,0.00350000
146166,-0.37300000,0.01400000
146167,-0.37300000,0.00350000
146168,-0.37500000,0.01150000
146169,-0.37700000,0.01150000
146170,-0.37700000,0.00600000
146171,-0.37900000,0.00600000
146172,-0.38500000,0.01700000
146173,-0.38700000,0.01700000
146174,-0.38700000,0.02500000
146175,-0.39100000,0.02800000
146176,-0.39100000,0.02800000
146177,-0.38900000,0.03050000
146178,-0.37700000,0.03050000
146179,-0.35850000,0.03900000
146180,-0.32850000,0.03600000
146181,-0.28800000,0.05000000
146182,-0.23400000,0.04150000
146183,-0.16700000,0.07200000
146184,-0.09050000,0.07200000
146185,-0.00600000,0.08550000
146186,0.08050000,0.08000000
146187,0.16750000,0.09100000
146188,0.25200000,0.08300000
146189,0.33050000,0.09950000
146190,0.39700000,0.11050000
146191,0.45550000,0.12700000
146192,0.49800000,0.11050000
146193,0.53200000,0.07750000
146194,0.55050000,0.06900000
146195,0.56450000,0.06100000
146196,0.56450000,0.03900000
146197,0.56050000,0.03050000
146198,0.54850000,0.04450000
146199,0.52800000,0.03350000
146200,0.50000000,0.01700000
146201,0.46750000,0.02500000
146202,0.42950000,0.03050000
146203,0.38900000,0.00600000
146204,0.34250000,0.01700000
146205,0.29650000,0.01150000
146206,0.24600000,0.01400000
146207,0.19550000,0.00600000
146208,0.13900000,0.02500000
146209,0.08650000,0.01400000
146210,0.03250000,0.02250000
146211,-0.02400000,0.01950000
146212,-0.07850000,0.00600000
146213,-0.12900000,0.00100000
146214,-0.17950000,0.01150000
146215,-0.22750000,0.00350000
146216,-0.27200000,0.02250000
146217,-0.31450000,0.01700000
146218,-0.35250000,0.03600000
146219,-0.38700000,0.03350000
146220,-0.41700000,0.04700000
146221,-0.44750000,0.03050000
146222,-0.46750000,0.03900000
146223,-0.48950000,0.03900000
146224,-0.50400000,0.01950000
146225,-0.52000000,0.03600000
146226,-0.53000000,0.03350000
146227,-0.53600000,0.01700000
146228,-0.54400000,0.00600000
146229,-0.54600000,0.00600000
146230,-0.54800000,0.00100000
146231,-0.55000000,-0.00150000
146232,-0.54600000,-0.01800000
146233,-0.54400000,-0.00450000
146234,-0.53800000,-0.01800000
146235,-0.53400000,-0.00150000
146236,-0.52600000,-0.00700000
146237,-0.52000000,0.00350000
146238,-0.48300000,0.03900000
146239,-0.47850000,0.06350000
146240,-0.47550000,-0.03200000
146241,-0.47100000,-0.09800000
146242,-0.46650000,-0.19650000
146243,-0.46300000,-0.26250000
146244,-0.45700000,-0.35800000
146245,-0.45100000,-0.35800000
146246,-0.44500000,-0.30350000
146247,-0.44050000,-0.30100000
146248,-0.43450000,-0.31400000
146249,-0.43150000,-0.31400000
146250,-0.42650000,-0.27350000
146251,-0.42200000,-0.21300000
146252,-0.41750000,-0.14150000
146253,-0.41450000,-0.09800000
146254,-0.41000000,-0.05100000
146255,-0.40700000,-0.04000000
146256,-0.40250000,-0.02350000
146257,-0.39600000,-0.04300000
146258,-0.39150000,-0.03750000
146259,-0.38700000,-0.03200000
146260,-0.38100000,-0.04300000
146261,-0.37650000,-0.04300000
146262,-0.37200000,-0.03450000
146263,-0.36750000,-0.05100000
146264,-0.36400000,-0.02100000
146265,-0.35800000,-0.04000000
146266,-0.35050000,-0.01000000
146267,-0.34300000,-0.03750000
146268,-0.32900000,-0.04000000
146269,-0.31100000,-0.02650000
146270,-0.28200000,-0.03200000
146271,-0.24700000,-0.02350000
146272,-0.19650000,-0.00450000
146273,-0.14200000,-0.01000000
146274,-0.07300000,-0.00450000
146275,0.00300000,0.02500000
146276,0.08050000,0.00100000
146277,0.16450000,0.01400000
146278,0.24500000,0.03050000
146279,0.32450000,0.00900000
146280,0.39600000,0.01700000
146281,0.45700000,0.01700000
146282,0.51000000,0.00350000
146283,0.55450000,0.02250000
146284,0.58800000,0.00600000
146285,0.61400000,0.00100000
146286,0.62900000,-0.01250000
146287,0.63800000,-0.02100000
146288,0.64100000,-0.01800000
146289,0.63950000,-0.01000000
146290,0.63050000,-0.04850000
146291,0.61850000,-0.04300000
146292,0.60000000,-0.02650000
146293,0.57750000,-0.05100000
146294,0.55150000,-0.07300000
146295,0.52100000,-0.06750000
146296,0.48600000,-0.06200000
146297,0.44800000,-0.04850000
146298,0.40800000,-0.05400000
146299,0.36250000,-0.05950000
146300,0.31700000,-0.05400000
146301,0.26800000,-0.05400000
146302,0.29400000,-0.03450000
146303,0.23650000,-0.04550000
146304,0.17850000,-0.04000000
146305,0.12400000,-0.05950000
146306,0.07150000,-0.05400000
146307,0.01900000,-0.04850000
146308,-0.03050000,-0.04000000
146309,-0.07300000,-0.02100000
146310,-0.11550000,-0.03450000
146311,-0.15100000,-0.04300000
146312,-0.18500000,-0.02100000
146313,-0.21400000,-0.02650000
146314,-0.23950000,-0.02650000
146315,-0.26000000,-0.02100000
146316,-0.27850000,-0.02100000
146317,-0.29050000,-0.05650000
146318,-0.30050000,-0.06500000
146319,-0.31100000,-0.05650000
146320,-0.31750000,-0.07600000
146321,-0.32100000,-0.08700000
146322,-0.32600000,-0.08150000
146323,-0.32950000,-0.07050000
146324,-0.33150000,-0.08400000
146325,-0.33650000,-0.09250000
146326,-0.34000000,-0.09250000
146327,-0.34500000,-0.06500000
146328,-0.34850000,-0.02650000
146329,-0.35500000,-0.00150000
146330,-0.36350000,-0.05400000
146331,-0.37200000,-0.13350000
146332,-0.38050000,-0.19350000
146333,-0.39050000,-0.29800000
146334,-0.40100000,-0.39400000
146335,-0.40750000,-0.40750000
146336,-0.41800000,-0.36650000
146337,-0.42650000,-0.33350000
146338,-0.43500000,-0.35800000
146339,-0.44000000,-0.35550000
146340,-0.44700000,-0.33600000
146341,-0.45000000,-0.25950000
146342,-0.45350000,-0.18250000
146343,-0.45550000,-0.12500000
146344,-0.45850000,-0.08700000
146345,-0.46050000,-0.07300000
146346,-0.46200000,-0.04850000
146347,-0.46400000,-0.07300000
146348,-0.46550000,-0.06750000
146349,-0.46700000,-0.05950000
146350,-0.47050000,-0.05400000
146351,-0.47400000,-0.05650000
146352,-0.47750000,-0.04300000
146353,-0.48400000,-0.05100000
146354,-0.48750000,-0.04550000
146355,-0.49450000,-0.05650000
146356,-0.49600000,-0.04000000
146357,-0.49800000,-0.03200000
146358,-0.49450000,-0.02350000
146359,-0.48750000,-0.03750000
146360,-0.47250000,-0.01550000
146361,-0.44700000,-0.01000000
146362,-0.40750000,-0.00150000
146363,-0.35850000,-0.02100000
146364,-0.29200000,0.00050000
146365,-0.21900000,0.01150000
146366,-0.13400000,0.01150000
146367,-0.04050000,0.00350000
146368,0.05300000,0.03350000
146369,0.14100000,0.02500000
146370,0.22800000,0.02250000
146371,0.30250000,0.01400000
146372,0.36350000,0.02500000
146373,0.41450000,0.01950000
146374,0.45050000,0.00600000
146375,0.47600000,0.00850000
146376,0.48800000,0.00100000
146377,0.48950000,-0.00450000
146378,0.48250000,-0.02100000
146379,0.46900000,-0.02100000
146380,0.44700000,-0.03750000
146381,0.42150000,-0.01550000
146382,0.38900000,-0.04850000
146383,0.35350000,-0.04550000
146384,0.31800000,-0.05100000
146385,0.27550000,-0.03450000
146386,0.23100000,-0.04850000
146387,0.18850000,-0.04300000
146388,0.14100000,-0.05100000
146389,0.09200000,-0.03450000
146390,0.04250000,-0.04850000
146391,-0.00650000,-0.04300000
146392,-0.05750000,-0.05400000
146393,-0.10850000,-0.03450000
146394,-0.15600000,-0.05100000
146395,-0.20400000,-0.05650000
146396,-0.25150000,-0.03200000
146397,-0.29400000,-0.01250000
146398,-0.33300000,-0.04850000
146399,-0.37050000,-0.04300000
146400,-0.40450000,-0.02100000
146401,-0.43300000,-0.02650000
146402,-0.46200000,-0.01800000
146403,-0.48400000,-0.00450000
146404,-0.50300000,-0.02100000
146405,-0.52000000,-0.01250000
146406,-0.53350000,-0.01550000
146407,-0.54350000,-0.02350000
146408,-0.55050000,-0.02900000
146409,-0.55200000,-0.06200000
146410,-0.55400000,-0.04550000
146411,-0.55400000,-0.05400000
146412,-0.55200000,-0.04850000
146413,-0.55050000,-0.05950000
146414,-0.54350000,-0.02900000
146415,-0.54050000,-0.08150000
146416,-0.53350000,-0.06500000
146417,-0.52850000,-0.04550000
146418,-0.52500000,-0.02900000
146419,-0.52000000,0.00100000
146420,-0.51800000,-0.01000000
146421,-0.51650000,-0.09500000
146422,-0.51300000,-0.15000000
146423,-0.51500000,-0.25400000
146424,-0.51500000,-0.33600000
146425,-0.51500000,-0.37200000
146426,-0.52000000,-0.34700000
146427,-0.52150000,-0.32500000
146428,-0.52650000,-0.30350000
146429,-0.53000000,-0.34450000
146430,-0.60600000,-0.32800000
146431,-0.60950000,-0.25950000
146432,-0.61800000,-0.20750000
146433,-0.62500000,-0.14700000
146434,-0.63150000,-0.09500000
146435,-0.63850000,-0.04550000
146436,-0.64700000,-0.05400000
146437,-0.65700000,-0.03450000
146438,-0.66750000,-0.06500000
146439,-0.67750000,-0.01800000
146440,-0.68800000,-0.05950000
146441,-0.69800000,-0.02900000
146442,-0.70650000,-0.03750000
146443,-0.71200000,-0.01800000
146444,-0.71850000,-0.04550000
146445,-0.72050000,-0.00450000
146446,-0.72200000,-0.05100000
146447,-0.72050000,-0.06500000
146448,-0.71350000,-0.04000000
146449,-0.70000000,-0.02650000
146450,-0.68100000,-0.01800000
146451,-0.65200000,-0.02900000
146452,-0.60950000,-0.01000000
146453,-0.55150000,0.00350000
146454,-0.47950000,0.00600000
146455,-0.39450000,0.01700000
146456,-0.29850000,0.01700000
146457,-0.19450000,0.03050000
146458,-0.08550000,0.01950000
146459,0.02050000,0.02800000
146460,0.11950000,0.03050000
146461,0.21350000,0.01700000
146462,0.29000000,0.03350000
146463,0.35350000,0.01700000
146464,0.40100000,0.00100000
146465,0.43700000,0.00850000
146466,0.45750000,0.00850000
146467,0.46750000,-0.00700000
146468,0.46450000,-0.00450000
146469,0.45600000,0.00100000
146470,0.43350000,0.00100000
146471,0.40950000,-0.01250000
146472,0.37900000,-0.01250000
146473,0.34500000,-0.01800000
146474,0.30900000,-0.03450000
146475,0.27300000,-0.02900000
146476,0.23200000,-0.02100000
146477,0.19450000,-0.02100000
146478,0.15550000,-0.04000000
146479,0.11600000,-0.03450000
146480,0.07500000,-0.03750000
146481,0.03250000,-0.02350000
146482,-0.01000000,-0.04000000
146483,-0.05650000,-0.02900000
146484,-0.10050000,-0.03200000
146485,-0.14700000,-0.01550000
146486,-0.19100000,-0.04300000
146487,-0.23200000,-0.02100000
146488,-0.27500000,-0.01550000
146489,-0.31050000,-0.01000000
146490,-0.34500000,-0.00150000
146491,-0.37400000,-0.01250000
146492,-0.39950000,-0.02350000
146493,-0.42150000,0.00100000
146494,-0.37450000,-0.01000000
146495,-0.38750000,-0.01000000
146496,-0.40100000,-0.01000000
146497,-0.40750000,-0.01550000
146498,-0.41600000,-0.01250000
146499,-0.41800000,-0.02650000
146500,-0.41950000,-0.05650000
146501,-0.41600000,-0.06200000
146502,-0.41450000,-0.04850000
146503,-0.40750000,-0.05400000
146504,-0.40250000,-0.04000000
146505,-0.39750000,-0.05100000
146506,-0.39250000,-0.03450000
146507,-0.38950000,-0.04550000
146508,-0.39100000,0.00900000
146509,-0.38950000,0.00350000
146510,-0.39250000,-0.00150000
146511,-0.39750000,-0.06500000
146512,-0.40100000,-0.12800000
146513,-0.40450000,-0.22100000
146514,-0.40950000,-0.29000000
146515,-0.41100000,-0.33600000
146516,-0.41100000,-0.32500000
146517,-0.41450000,-0.31400000
146518,-0.41450000,-0.27350000
146519,-0.41450000,-0.29000000
146520,-0.41450000,-0.29550000
146521,-0.41250000,-0.24300000
146522,-0.41100000,-0.17450000
146523,-0.40600000,-0.13350000
146524,-0.39600000,-0.08150000
146525,-0.38750000,-0.03450000
146526,-0.37450000,-0.02900000
146527,-0.36250000,-0.02350000
146528,-0.35100000,-0.01550000
146529,-0.33900000,-0.00150000
146530,-0.33400000,-0.00450000
146531,-0.32600000,0.00600000
146532,-0.32100000,-0.01250000
146533,-0.32100000,-0.00150000
146534,-0.31900000,-0.00700000
146535,-0.31900000,-0.00150000
146536,-0.31900000,0.02500000
146537,-0.32100000,0.01700000
146538,-0.31900000,-0.00450000
146539,-0.31750000,0.04450000
146540,-0.30750000,0.00350000
146541,-0.29400000,0.01150000
146542,-0.27250000,0.03900000
146543,-0.23900000,0.02800000
146544,-0.19850000,0.00600000
146545,-0.14500000,0.03600000
146546,-0.08650000,0.03900000
146547,-0.02150000,0.05000000
146548,0.04700000,0.05800000
146549,0.11400000,0.08300000
146550,0.17750000,0.10500000
146551,0.23250000,0.08300000
146552,0.28300000,0.12150000
146553,0.32450000,0.09650000
146554,0.35650000,0.03900000
146555,0.38150000,0.02500000
146556,0.39650000,0.03600000
146557,0.40500000,0.01150000
146558,0.39800000,0.01950000
146559,0.39300000,0.00850000
146560,0.38150000,0.06650000
146561,0.36450000,0.00900000
146562,0.34100000,-0.01250000
146563,0.31750000,-0.00450000
146564,0.28750000,-0.00700000
146565,0.25600000,0.00100000
146566,0.22100000,-0.01550000
146567,0.18550000,-0.02100000
146568,0.14550000,0.01150000
146569,0.10550000,-0.02900000
146570,0.06550000,-0.00450000
146571,0.02200000,-0.00450000
146572,-0.02000000,-0.01550000
146573,-0.06200000,-0.02100000
146574,-0.10350000,-0.04000000
146575,-0.14200000,-0.03200000
146576,-0.17900000,-0.01800000
146577,-0.21250000,0.00100000
146578,-0.24250000,-0.00700000
146579,-0.26600000,-0.01000000
146580,-0.28600000,0.00900000
146581,-0.30100000,0.03050000
146582,-0.31250000,0.02250000
146583,-0.31750000,0.00600000
146584,-0.32100000,-0.01000000
146585,-0.32250000,0.01400000
146586,-0.32100000,0.00100000
146587,-0.31600000,0.00100000
146588,-0.31100000,-0.02100000
146589,-0.30250000,-0.01250000
146590,-0.29400000,-0.01550000
146591,-0.28750000,-0.01250000
146592,-0.27750000,-0.03450000
146593,-0.26900000,-0.01800000
146594,-0.25900000,-0.02350000
146595,-0.25050000,-0.02100000
146596,-0.24050000,0.00100000
146597,-0.23050000,-0.02650000
146598,-0.22400000,-0.02350000
146599,-0.21400000,0.00900000
146600,-0.20550000,0.01400000
146601,-0.20050000,-0.03200000
146602,-0.19400000,-0.10050000
146603,-0.19050000,-0.16900000
146604,-0.19050000,-0.25150000
146605,-0.19050000,-0.31950000
146606,-0.19400000,-0.32500000
146607,-0.19700000,-0.27600000
146608,-0.20200000,-0.25400000
146609,-0.21050000,-0.29550000
146610,-0.21550000,-0.28450000
146611,-0.22550000,-0.25400000
146612,-0.23400000,-0.20450000
146613,-0.24550000,-0.14150000
146614,-0.25550000,-0.08400000
146615,-0.26400000,-0.06500000
146616,-0.27100000,-0.02900000
146617,-0.27900000,-0.02900000
146618,-0.28900000,-0.01800000
146619,-0.29400000,-0.02350000
146620,-0.30250000,-0.01800000
146621,-0.30900000,-0.01000000
146622,-0.30800000,-0.00450000
146623,-0.32100000,0.00050000
146624,-0.33100000,0.00050000
146625,-0.34200000,0.00050000
146626,-0.35350000,-0.00450000
146627,-0.36300000,-0.00700000
146628,-0.37300000,-0.01800000
146629,-0.37950000,-0.01250000
146630,-0.37950000,-0.00450000
146631,-0.36950000,0.00100000
146632,-0.35200000,-0.00450000
146633,-0.32250000,0.00100000
146634,-0.28550000,0.00900000
146635,-0.23500000,0.02800000
146636,-0.17500000,0.02250000
146637,-0.10850000,0.04450000
146638,-0.03900000,0.04700000
146639,0.03400000,0.07450000
146640,0.10700000,0.07200000
146641,0.17350000,0.09100000
146642,0.23350000,0.07450000
146643,0.28700000,0.06100000
146644,0.32900000,0.04450000
146645,0.36300000,0.04450000
146646,0.38750000,0.03350000
146647,0.40200000,0.03350000
146648,0.41000000,0.02800000
146649,0.40850000,0.02500000
146650,0.40200000,0.01700000
146651,0.38750000,0.00600000
146652,0.36950000,0.00850000
146653,0.34700000,0.00100000
146654,0.32100000,0.00850000
146655,0.29000000,0.01150000
146656,0.25750000,0.01400000
146657,0.22500000,0.00350000
146658,0.18800000,0.01700000
146659,0.14900000,0.00100000
146660,0.11150000,0.00350000
146661,0.06950000,0.00850000
146662,0.02750000,0.02500000
146663,-0.01300000,0.00900000
146664,-0.05200000,0.00100000
146665,-0.08950000,-0.00700000
146666,-0.12500000,0.00850000
146667,-0.15900000,0.01400000
146668,-0.19150000,0.03050000
146669,-0.22200000,0.01950000
146670,-0.24800000,0.02500000
146671,-0.27400000,0.03600000
146672,-0.30000000,0.05250000
146673,-0.32100000,0.06650000
146674,-0.34050000,0.04700000
146675,-0.35500000,0.07750000
146676,-0.36800000,0.09100000
146677,-0.37950000,0.03350000
146678,-0.38450000,0.01700000
146679,-0.38750000,0.02500000
146680,-0.38450000,0.00350000
146681,-0.38100000,0.00350000
146682,-0.37150000,0.00350000
146683,-0.35850000,0.01700000
146684,-0.34400000,0.00100000
146685,-0.32600000,0.00600000
146686,-0.33000000,0.00100000
146687,-0.30650000,0.01950000
146688,-0.27950000,0.05000000
146689,-0.24950000,0.09400000
146690,-0.21600000,0.07450000
146691,-0.17750000,-0.00700000
146692,-0.13550000,-0.06200000
146693,-0.09350000,-0.10350000
146694,-0.04850000,-0.22400000
146695,-0.00300000,-0.29000000
146696,0.04050000,-0.30900000
146697,0.08050000,-0.25700000
146698,0.11600000,-0.24300000
146699,0.14750000,-0.24050000
146700,0.17450000,-0.24600000
146701,0.19300000,-0.22950000
146702,0.20650000,-0.16900000
146703,0.21150000,-0.07850000
146704,0.21450000,-0.01550000
146705,0.20950000,0.00100000
146706,0.20450000,0.00100000
146707,0.19600000,0.00100000
146708,0.18450000,0.01150000
146709,0.16950000,0.01950000
146710,0.15450000,0.00600000
146711,0.13950000,-0.01250000
146712,0.12100000,0.00850000
146713,0.10250000,0.00350000
146714,0.08550000,0.00100000
146715,0.06550000,0.00350000
146716,0.04900000,0.01400000
146717,0.03350000,0.00600000
146718,0.01850000,0.03050000
146719,0.01350000,0.02500000
146720,0.01350000,0.04700000
146721,0.02350000,0.05250000
146722,0.04550000,0.04150000
146723,0.07900000,0.02800000
146724,0.12250000,0.05000000
146725,0.17950000,0.06900000
146726,0.24000000,0.05800000
146727,0.30500000,0.09100000
146728,0.37050000,0.11300000
146729,0.43400000,0.08000000
146730,0.48950000,0.07750000
146731,0.54000000,0.10500000
146732,0.57650000,0.08300000
146733,0.60500000,0.06900000
146734,0.62000000,0.06650000
146735,0.62200000,0.06100000
146736,0.61700000,0.04450000
146737,0.60000000,0.05550000
146738,0.57850000,0.04450000
146739,0.54800000,0.03600000
146740,0.51650000,0.02250000
146741,0.47800000,0.01700000
146742,0.43750000,0.01400000
146743,0.39250000,0.02250000
146744,0.34550000,0.00900000
146745,0.29700000,0.00900000
146746,0.24650000,0.00100000
146747,0.19300000,0.00100000
146748,0.13600000,-0.01550000
146749,0.08400000,-0.00450000
146750,0.06200000,0.00850000
146751,0.00200000,0.00600000
146752,-0.05800000,0.00100000
146753,-0.11750000,0.00600000
146754,-0.17950000,0.00600000
146755,-0.23750000,0.01150000
146756,-0.29750000,0.03350000
146757,-0.35550000,0.00100000
146758,-0.41350000,0.01950000
146759,-0.46750000,0.02250000
146760,-0.52000000,0.02800000
146761,-0.56850000,0.01700000
146762,-0.61150000,0.03350000
146763,-0.65100000,0.02800000
146764,-0.68300000,0.02250000
146765,-0.71100000,0.02500000
146766,-0.73350000,0.05550000
146767,-0.74850000,0.01450000
146768,-0.75950000,0.01400000
146769,-0.76700000,0.00600000
146770,-0.76700000,0.00100000
146771,-0.76500000,0.00100000
146772,-0.75750000,0.00100000
146773,-0.74850000,-0.00700000
146774,-0.73700000,-0.00700000
146775,-0.72400000,0.00100000
146776,-0.70900000,0.00900000
146777,-0.69600000,0.01950000
146778,-0.68100000,0.03050000
146779,-0.66400000,0.06100000
146780,-0.65300000,0.02800000
146781,-0.63800000,-0.02350000
146782,-0.62300000,-0.10900000
146783,-0.61150000,-0.21000000
146784,-0.59850000,-0.29550000
146785,-0.58750000,-0.30900000
146786,-0.57600000,-0.30600000
146787,-0.56500000,-0.26250000
146788,-0.55550000,-0.25400000
146789,-0.54800000,-0.26800000
146790,-0.53700000,-0.27900000
146791,-0.52950000,-0.22400000
146792,-0.52000000,-0.13350000
146793,-0.51050000,-0.07050000
146794,-0.50300000,-0.01550000
146795,-0.49400000,0.00600000
146796,-0.48250000,-0.00150000
146797,-0.47500000,0.00100000
146798,-0.46550000,-0.00150000
146799,-0.45850000,0.01450000
146800,-0.45250000,0.00900000
146801,-0.44900000,0.00100000
146802,-0.44500000,0.00100000
146803,-0.44350000,0.00600000
146804,-0.44500000,0.01700000
146805,-0.44350000,0.01950000
146806,-0.44150000,0.00350000
146807,-0.43600000,0.00350000
146808,-0.43000000,0.01150000
146809,-0.41350000,0.00100000
146810,-0.38900000,0.02250000
146811,-0.35700000,0.03350000
146812,-0.31250000,0.03600000
146813,-0.25800000,0.04450000
146814,-0.19650000,0.05550000
146815,-0.12350000,0.05800000
146816,-0.04650000,0.09950000
146817,0.03200000,0.08550000
146818,0.10700000,0.05800000
146819,0.17800000,0.07200000
146820,0.24150000,0.09400000
146821,0.29400000,0.10500000
146822,0.33300000,0.08550000
146823,0.36300000,0.06100000
146824,0.38000000,0.07750000
146825,0.38350000,0.06350000
146826,0.38000000,0.05550000
146827,0.36900000,0.06650000
146828,0.35000000,0.03900000
146829,0.33150000,0.02250000
146830,0.30700000,0.00600000
146831,0.28250000,0.03050000
146832,0.26000000,0.01150000
146833,0.23600000,0.00100000
146834,0.21550000,0.00100000
146835,0.18900000,0.01700000
146836,0.16300000,0.00600000
146837,0.13700000,0.00350000
146838,0.10700000,0.00100000
146839,0.07150000,0.00100000
146840,0.03400000,0.00100000
146841,-0.00550000,0.00850000
146842,-0.04450000,0.00100000
146843,-0.08600000,0.00850000
146844,-0.12500000,0.00350000
146845,-0.15900000,0.00850000
146846,-0.19050000,0.00350000
146847,-0.21900000,0.00350000
146848,-0.24100000,0.01150000
146849,-0.25600000,0.03350000
146850,-0.27300000,0.03050000
146851,-0.27850000,0.02500000
146852,-0.28800000,0.00600000
146853,-0.29000000,0.01400000
146854,-0.29550000,0.02800000
146855,-0.29350000,0.02800000
146856,-0.29350000,0.02500000
146857,-0.29150000,0.00600000
146858,-0.28800000,0.01950000
146859,-0.28800000,0.00100000
146860,-0.28600000,0.01150000
146861,-0.28250000,-0.00150000
146862,-0.28050000,-0.01000000
146863,-0.28050000,-0.00450000
146864,-0.27850000,0.00100000
146865,-0.27850000,-0.00700000
146866,-0.27700000,-0.02100000
146867,-0.27700000,-0.00150000
146868,-0.27700000,0.05550000
146869,-0.27700000,0.04150000
146870,-0.27850000,-0.02100000
146871,-0.28050000,-0.09500000
146872,-0.28250000,-0.16900000
146873,-0.28800000,-0.26250000
146874,-0.29150000,-0.32500000
146875,-0.29350000,-0.30900000
146876,-0.29550000,-0.24850000
146877,-0.29900000,-0.25700000
146878,-0.30400000,-0.27600000
146879,-0.30750000,-0.25150000
146880,-0.30750000,-0.21550000
146881,-0.31100000,-0.15800000
146882,-0.31450000,-0.09800000
146883,-0.31800000,-0.02350000
146884,-0.32350000,-0.01800000
146885,-0.32850000,-0.01250000
146886,-0.33400000,-0.01250000
146887,-0.33900000,0.00100000
146888,-0.34800000,0.00100000
146889,-0.35700000,0.00600000
146890,-0.36400000,0.00100000
146891,-0.37300000,0.00100000
146892,-0.38000000,-0.00450000
146893,-0.39050000,0.00100000
146894,-0.39550000,0.00100000
146895,-0.40100000,0.00600000
146896,-0.40650000,0.00350000
146897,-0.41000000,0.00600000
146898,-0.40800000,0.01150000
146899,-0.40100000,0.02800000
146900,-0.38850000,0.03900000
146901,-0.36750000,0.04150000
146902,-0.33750000,0.04450000
146903,-0.29700000,0.04150000
146904,-0.24750000,0.06100000
146905,-0.19250000,0.09650000
146906,-0.13600000,0.06900000
146907,-0.07800000,0.05800000
146908,-0.02150000,0.08850000
146909,0.02800000,0.09950000
146910,0.07050000,0.11300000
146911,0.10400000,0.09650000
146912,0.12850000,0.11050000
146913,0.14450000,0.13800000
146914,0.15150000,0.09400000
146915,0.15350000,0.02800000
146916,0.14650000,0.05250000
146917,0.13550000,0.04450000
146918,0.12000000,0.03350000
146919,0.10050000,0.02250000
146920,0.07750000,0.03350000
146921,0.05450000,0.04150000
146922,0.02800000,0.05550000
146923,0.00150000,0.01950000
146924,-0.02500000,0.01700000
146925,-0.04950000,0.03900000
146926,-0.07600000,0.07200000
146927,-0.10100000,0.01150000
146928,-0.12550000,0.00350000
146929,-0.14700000,0.04150000
146930,-0.16800000,0.02800000
146931,-0.19100000,0.01400000
146932,-0.20850000,0.04150000
146933,-0.22800000,0.03050000
146934,-0.24550000,0.00100000
146935,-0.26000000,0.01700000
146936,-0.27900000,0.04450000
146937,-0.29350000,0.04150000
146938,-0.31100000,0.01950000
146939,-0.32700000,0.06650000
146940,-0.34300000,0.01700000
146941,-0.35850000,0.05250000
146942,-0.37900000,0.05250000
146943,-0.39200000,0.07200000
146944,-0.39950000,0.03600000
146945,-0.40150000,0.01700000
146946,-0.40300000,-0.00450000
146947,-0.39950000,0.00100000
146948,-0.38800000,0.00100000
146949,-0.37500000,0.00100000
146950,-0.36000000,0.00100000
146951,-0.34150000,0.00050000
146952,-0.32250000,0.02800000
146953,-0.30400000,-0.04300000
146954,-0.28500000,-0.04000000
146955,-0.26800000,0.02550000
146956,-0.25300000,0.07200000
146957,-0.24000000,0.07450000
146958,-0.23450000,0.04450000
146959,-0.23450000,-0.03200000
146960,-0.24000000,-0.10850000
146961,-0.24950000,-0.22400000
146962,-0.26650000,-0.27600000
146963,-0.28300000,-0.30650000
146964,-0.30550000,-0.27900000
146965,-0.33000000,-0.26500000
146966,-0.35650000,-0.25950000
146967,-0.38050000,-0.29550000
146968,-0.40500000,-0.26800000
146969,-0.42750000,-0.20750000
146970,-0.45000000,-0.12000000
146971,-0.46500000,-0.07600000
146972,-0.47800000,-0.02900000
146973,-0.48550000,-0.03750000
146974,-0.48550000,-0.00450000
146975,-0.48400000,0.00050000
146976,-0.47650000,-0.04850000
146977,-0.46700000,-0.05650000
146978,-0.45750000,-0.00450000
146979,-0.44650000,-0.00150000
146980,-0.43500000,-0.02100000
146981,-0.42750000,0.00100000
146982,-0.42200000,-0.00450000
146983,-0.42000000,0.01400000
146984,-0.42000000,-0.02100000
146985,-0.41800000,-0.01250000
146986,-0.42000000,-0.03450000
146987,-0.41800000,0.00100000
146988,-0.42000000,-0.00450000
146989,-0.41800000,-0.00150000
146990,-0.41250000,0.00900000
146991,-0.40500000,0.04700000
146992,-0.38800000,0.01400000
146993,-0.36200000,0.04700000
146994,-0.32650000,0.07750000
146995,-0.27950000,0.07450000
146996,-0.21400000,0.07750000
146997,-0.13500000,0.04450000
146998,-0.04500000,0.03050000
146999,0.05050000,0.04700000
147000,0.15200000,0.07450000
147001,0.24750000,0.05550000
147002,0.33550000,0.05800000
147003,0.41050000,0.03900000
147004,0.47050000,0.02250000
147005,0.51350000,0.00600000
147006,0.58300000,-0.00150000
147007,0.58850000,-0.00450000
147008,0.58100000,0.01150000
147009,0.55500000,-0.02100000
147010,0.51750000,-0.00450000
147011,0.47050000,-0.00450000
147012,0.41800000,0.00350000
147013,0.35800000,0.00350000
147014,0.30350000,0.00900000
147015,0.24550000,-0.00450000
147016,0.19300000,-0.00150000
147017,0.14400000,-0.03200000
147018,0.09550000,0.00600000
147019,0.05250000,-0.02650000
147020,0.01500000,-0.01800000
147021,-0.02450000,-0.02100000
147022,-0.05450000,-0.01250000
147023,-0.08450000,-0.01250000
147024,-0.10500000,0.00100000
147025,-0.12400000,0.00100000
147026,-0.14100000,0.00100000
147027,-0.15200000,0.01150000
147028,-0.16700000,0.03900000
147029,-0.18000000,0.05250000
147030,-0.19700000,0.00600000
147031,-0.21950000,0.02500000
147032,-0.24200000,0.03600000
147033,-0.26450000,0.01450000
147034,-0.29250000,-0.00450000
147035,-0.31350000,-0.01800000
147036,-0.33600000,-0.02900000
147037,-0.35100000,-0.02100000
147038,-0.36600000,-0.02900000
147039,-0.37500000,-0.01550000
147040,-0.38100000,-0.00150000
147041,-0.38100000,-0.01550000
147042,-0.38100000,-0.02900000
147043,-0.37500000,0.02500000
147044,-0.36750000,0.00050000
147045,-0.35850000,0.04700000
147046,-0.35100000,0.04150000
147047,-0.33950000,-0.02350000
147048,-0.33200000,-0.10350000
147049,-0.32250000,-0.16100000
147050,-0.32100000,-0.25150000
147051,-0.31900000,-0.29000000
147052,-0.32100000,-0.30900000
147053,-0.32650000,-0.27050000
147054,-0.33400000,-0.25400000
147055,-0.34500000,-0.25400000
147056,-0.35450000,-0.26500000
147057,-0.36400000,-0.23200000
147058,-0.37500000,-0.15250000
147059,-0.38650000,-0.10050000
147060,-0.39600000,-0.05650000
147061,-0.40700000,-0.03750000
147062,-0.41450000,-0.01550000
147063,-0.42200000,-0.01000000
147064,-0.42950000,-0.00150000
147065,-0.43150000,0.00100000
147066,-0.43700000,0.00100000
147067,-0.43700000,-0.02100000
147068,-0.44100000,-0.00150000
147069,-0.43700000,0.00100000
147070,-0.43900000,0.00100000
147071,-0.43500000,-0.00450000
147072,-0.42750000,0.01150000
147073,-0.42000000,0.00100000
147074,-0.41100000,0.00900000
147075,-0.39400000,0.01150000
147076,-0.36950000,0.00600000
147077,-0.34150000,0.00100000
147078,-0.30000000,0.01400000
147079,-0.25350000,0.01150000
147080,-0.19350000,0.01700000
147081,-0.12950000,0.03350000
147082,-0.05850000,0.03050000
147083,0.01650000,0.05550000
147084,0.09000000,0.04700000
147085,0.16300000,0.06350000
147086,0.22850000,0.07200000
147087,0.28650000,0.06650000
147088,0.33350000,0.06900000
147089,0.37300000,0.07450000
147090,0.39750000,0.06100000
147091,0.41600000,0.07450000
147092,0.42350000,0.03900000
147093,0.42350000,0.05000000
147094,0.41400000,0.04700000
147095,0.39900000,0.01950000
147096,0.38250000,0.00100000
147097,0.35800000,0.00600000
147098,0.33550000,0.00350000
147099,0.30750000,0.00100000
147100,0.27550000,0.00350000
147101,0.24150000,0.00350000
147102,0.21000000,0.00350000
147103,0.17250000,0.00850000
147104,0.13100000,0.00350000
147105,0.09350000,0.01150000
147106,0.05250000,0.01150000
147107,0.00900000,0.00900000
147108,-0.03400000,0.01950000
147109,-0.07700000,0.00350000
147110,-0.11850000,0.00050000
147111,-0.15600000,-0.01000000
147112,-0.19350000,-0.00700000
147113,-0.22900000,0.00100000
147114,-0.26100000,0.01150000
147115,-0.28700000,0.01400000
147116,-0.31150000,0.03350000
147117,-0.33400000,0.01400000
147118,-0.35250000,0.02250000
147119,-0.36750000,0.03350000
147120,-0.38100000,0.05550000
147121,-0.39000000,0.02250000
147122,-0.39950000,0.01950000
147123,-0.40500000,0.01150000
147124,-0.41100000,0.00100000
147125,-0.40900000,-0.00150000
147126,-0.41250000,-0.00700000
147127,-0.40900000,-0.02650000
147128,-0.40900000,-0.00450000
147129,-0.40500000,-0.00700000
147130,-0.40350000,-0.01550000
147131,-0.39950000,-0.01000000
147132,-0.39750000,-0.00150000
147133,-0.39750000,0.03050000
147134,-0.40850000,0.05800000
147135,-0.40650000,0.01150000
147136,-0.40450000,-0.05650000
147137,-0.40450000,-0.10350000
147138,-0.40450000,-0.21300000
147139,-0.40450000,-0.24300000
147140,-0.40450000,-0.27600000
147141,-0.40450000,-0.27050000
147142,-0.40250000,-0.26500000
147143,-0.40050000,-0.23750000
147144,-0.40050000,-0.25150000
147145,-0.39850000,-0.24050000
147146,-0.39500000,-0.19900000
147147,-0.39300000,-0.11450000
147148,-0.39100000,-0.07600000
147149,-0.38700000,-0.02900000
147150,-0.38350000,-0.02100000
147151,-0.38500000,0.00050000
147152,-0.38350000,0.00850000
147153,-0.38350000,0.00100000
147154,-0.38500000,0.00100000
147155,-0.38350000,0.00100000
147156,-0.38500000,-0.01000000
147157,-0.38700000,-0.01800000
147158,-0.38700000,-0.00150000
147159,-0.39100000,-0.01800000
147160,-0.39100000,0.00100000
147161,-0.39100000,0.00100000
147162,-0.39100000,0.00350000
147163,-0.38700000,-0.00150000
147164,-0.37550000,0.01700000
147165,-0.36000000,0.00350000
147166,-0.33500000,0.01950000
147167,-0.30050000,0.03600000
147168,-0.25450000,0.04450000
147169,-0.19650000,0.01700000
147170,-0.13100000,0.06100000
147171,-0.05800000,0.04700000
147172,0.01900000,0.04700000
147173,0.10000000,0.04450000
147174,0.17700000,0.06900000
147175,0.24850000,0.06900000
147176,0.31000000,0.07450000
147177,0.36600000,0.06900000
147178,0.41000000,0.06650000
147179,0.44100000,0.06900000
147180,0.46000000,0.04700000
147181,0.47150000,0.04450000
147182,0.47350000,0.03900000
147183,0.47000000,0.04450000
147184,0.45850000,0.02250000
147185,0.44100000,0.02250000
147186,0.41950000,0.00100000
147187,0.39450000,0.00100000
147188,0.36800000,0.00100000
147189,0.33500000,0.00350000
147190,0.29850000,0.00350000
147191,0.26550000,0.00850000
147192,0.22500000,-0.01250000
147193,0.18300000,0.00100000
147194,0.13850000,0.00100000
147195,0.09450000,0.00600000
147196,0.04800000,0.00100000
147197,0.00000000,0.00600000
147198,-0.05550000,0.01400000
147199,-0.10850000,0.00600000
147200,-0.16150000,0.00600000
147201,-0.21250000,0.01700000
147202,-0.25850000,0.02250000
147203,-0.30200000,0.03350000
147204,-0.34150000,0.02500000
147205,-0.37800000,0.02800000
147206,-0.40600000,0.02800000
147207,-0.43350000,0.03600000
147208,-0.45650000,0.05550000
147209,-0.47500000,0.04450000
147210,-0.48900000,0.03350000
147211,-0.50250000,0.00850000
147212,-0.51200000,0.00600000
147213,-0.51900000,0.00600000
147214,-0.52550000,0.01950000
147215,-0.52550000,0.00350000
147216,-0.52800000,0.02500000
147217,-0.52550000,0.01950000
147218,-0.52100000,0.00600000
147219,-0.51650000,0.01150000
147220,-0.50950000,0.06100000
147221,-0.50050000,0.08000000
147222,-0.48900000,0.08850000
147223,-0.47750000,0.00600000
147224,-0.46800000,-0.04300000
147225,-0.45650000,-0.11700000
147226,-0.44950000,-0.22650000
147227,-0.44500000,-0.27900000
147228,-0.44050000,-0.27600000
147229,-0.43600000,-0.24050000
147230,-0.43600000,-0.22650000
147231,-0.43600000,-0.21000000
147232,-0.43100000,-0.20200000
147233,-0.43350000,-0.18550000
147234,-0.43100000,-0.13050000
147235,-0.43100000,-0.05950000
147236,-0.42650000,-0.01250000
147237,-0.42650000,0.03050000
147238,-0.42450000,0.02800000
147239,-0.42200000,0.06350000
147240,-0.41950000,0.05000000
147241,-0.41500000,0.05250000
147242,-0.41300000,0.04450000
147243,-0.41050000,0.05550000
147244,-0.41050000,0.05800000
147245,-0.40600000,0.06650000
147246,-0.40800000,0.05800000
147247,-0.40350000,0.07450000
147248,-0.40800000,0.06900000
147249,-0.40800000,0.07450000
147250,-0.41050000,0.08000000
147251,-0.41300000,0.09100000
147252,-0.41050000,0.09950000
147253,-0.40150000,0.10500000
147254,-0.38300000,0.09950000
147255,-0.35300000,0.10750000
147256,-0.31350000,0.12400000
147257,-0.25850000,0.14050000
147258,-0.18900000,0.13800000
147259,-0.11100000,0.14050000
147260,-0.02550000,0.16500000
147261,0.06450000,0.16500000
147262,0.15650000,0.17600000
147263,0.24650000,0.17050000
147264,0.32950000,0.17300000
147265,0.40300000,0.16500000
147266,0.46550000,0.16200000
147267,0.51350000,0.15450000
147268,0.55050000,0.15150000
147269,0.57350000,0.12400000
147270,0.58750000,0.12400000
147271,0.59000000,0.11050000
147272,0.58050000,0.10750000
147273,0.56200000,0.09950000
147274,0.53650000,0.10500000
147275,0.50700000,0.09100000
147276,0.47000000,0.09100000
147277,0.43300000,0.08300000
147278,0.39150000,0.07750000
147279,0.34550000,0.08550000
147280,0.29950000,0.08300000
147281,0.25350000,0.08550000
147282,0.20700000,0.09100000
147283,0.15650000,0.09950000
147284,0.10800000,0.09650000
147285,0.05950000,0.10200000
147286,0.00650000,0.08550000
147287,-0.04150000,0.09950000
147288,-0.08800000,0.09100000
147289,-0.13850000,0.09950000
147290,-0.18000000,0.09100000
147291,-0.22400000,0.10200000
147292,-0.26050000,0.08300000
147293,-0.29500000,0.09400000
147294,-0.32750000,0.09100000
147295,-0.35500000,0.10750000
147296,-0.37600000,0.09100000
147297,-0.39450000,0.08550000
147298,-0.40800000,0.06100000
147299,-0.41750000,0.06100000
147300,-0.42450000,0.03900000
147301,-0.42650000,0.04150000
147302,-0.42900000,0.04700000
147303,-0.42650000,0.03600000
147304,-0.42650000,0.04150000
147305,-0.42450000,0.03350000
147306,-0.42450000,0.03050000
147307,-0.42650000,0.06100000
147308,-0.42450000,0.10200000
147309,-0.42200000,0.09100000
147310,-0.42200000,0.04450000
147311,-0.42200000,-0.02350000
147312,-0.42450000,-0.08950000
147313,-0.42450000,-0.20200000
147314,-0.42200000,-0.26500000
147315,-0.42200000,-0.29250000
147316,-0.41950000,-0.24850000
147317,-0.41950000,-0.23500000
147318,-0.41500000,-0.20750000
147319,-0.41300000,-0.20450000
147320,-0.40800000,-0.18000000
147321,-0.40800000,-0.15800000
147322,-0.40800000,-0.08700000
147323,-0.40350000,-0.01550000
147324,-0.40350000,0.02500000
147325,-0.39900000,0.04450000
147326,-0.38350000,0.05550000
147327,-0.38550000,0.05550000
147328,-0.38350000,0.06100000
147329,-0.38350000,0.06350000
147330,-0.38100000,0.07200000
147331,-0.38100000,0.07200000
147332,-0.38350000,0.06900000
147333,-0.38100000,0.07450000
147334,-0.37900000,0.06900000
147335,-0.37450000,0.07450000
147336,-0.37000000,0.07200000
147337,-0.35850000,0.08000000
147338,-0.34100000,0.07200000
147339,-0.31600000,0.08850000
147340,-0.28050000,0.08550000
147341,-0.24000000,0.10200000
147342,-0.19500000,0.10200000
147343,-0.14100000,0.12150000
147344,-0.08500000,0.12150000
147345,-0.02450000,0.13800000
147346,0.03350000,0.14350000
147347,0.09200000,0.15950000
147348,0.14800000,0.14900000
147349,0.20400000,0.15950000
147350,0.25800000,0.15400000
147351,0.31150000,0.15950000
147352,0.35900000,0.14900000
147353,0.40350000,0.15150000
147354,0.44600000,0.13500000
147355,0.48200000,0.12700000
147356,0.51350000,0.11850000
147357,0.53600000,0.10200000
147358,0.54950000,0.10200000
147359,0.55400000,0.08850000
147360,0.55150000,0.08300000
147361,0.54050000,0.07450000
147362,0.52250000,0.07750000
147363,0.49550000,0.07200000
147364,0.46200000,0.07450000
147365,0.42600000,0.06350000
147366,0.38350000,0.07450000
147367,0.33850000,0.06100000
147368,0.29150000,0.07200000
147369,0.24650000,0.06100000
147370,0.19950000,0.07450000
147371,0.15000000,0.06100000
147372,0.10550000,0.07200000
147373,0.05850000,0.06350000
147374,0.01550000,0.07750000
147375,-0.02700000,0.07200000
147376,-0.06750000,0.08000000
147377,-0.10550000,0.07750000
147378,-0.14350000,0.08850000
147379,-0.17700000,0.08850000
147380,-0.21100000,0.08850000
147381,-0.24450000,0.09100000
147382,-0.27150000,0.09400000
147383,-0.29600000,0.09400000
147384,-0.31850000,0.07750000
147385,-0.33400000,0.07200000
147386,-0.35200000,0.05550000
147387,-0.36300000,0.05250000
147388,-0.37200000,0.03600000
147389,-0.37450000,0.04150000
147390,-0.40900000,0.03050000
147391,-0.40900000,0.04450000
147392,-0.40450000,0.03050000
147393,-0.40050000,0.04150000
147394,-0.39600000,0.03600000
147395,-0.39200000,0.07200000
147396,-0.38550000,0.10200000
147397,-0.37900000,0.11050000
147398,-0.37050000,0.03050000
147399,-0.36850000,-0.02900000
147400,-0.36200000,-0.13050000
147401,-0.35750000,-0.23200000
147402,-0.35100000,-0.28150000
147403,-0.34900000,-0.27350000
147404,-0.34500000,-0.23500000
147405,-0.34050000,-0.22400000
147406,-0.33600000,-0.22650000
147407,-0.33400000,-0.22100000
147408,-0.33400000,-0.18800000
147409,-0.33200000,-0.12800000
147410,-0.33200000,-0.04300000
147411,-0.33200000,-0.00150000
147412,-0.33200000,0.03050000
147413,-0.33200000,0.02500000
147414,-0.33400000,0.04150000
147415,-0.33400000,0.03600000
147416,-0.33850000,0.04700000
147417,-0.34050000,0.03600000
147418,-0.34250000,0.05000000
147419,-0.34500000,0.03900000
147420,-0.34900000,0.05250000
147421,-0.35100000,0.04450000
147422,-0.35350000,0.05250000
147423,-0.35750000,0.04700000
147424,-0.35550000,0.05800000
147425,-0.35350000,0.05800000
147426,-0.34250000,0.06650000
147427,-0.33200000,0.06350000
147428,-0.30650000,0.07200000
147429,-0.27400000,0.07450000
147430,-0.22900000,0.08550000
147431,-0.17150000,0.09400000
147432,-0.10300000,0.09950000
147433,-0.03000000,0.10750000
147434,0.05100000,0.11050000
147435,0.13450000,0.12950000
147436,0.21400000,0.12400000
147437,0.29100000,0.14050000
147438,0.35750000,0.12950000
147439,0.41500000,0.13500000
147440,0.46000000,0.11850000
147441,0.49450000,0.12150000
147442,0.51550000,0.10200000
147443,0.52850000,0.10200000
147444,0.52850000,0.08000000
147445,0.52450000,0.07750000
147446,0.51350000,0.06900000
147447,0.49650000,0.06900000
147448,0.47100000,0.05250000
147449,0.44500000,0.06100000
147450,0.41500000,0.05000000
147451,0.38100000,0.05250000
147452,0.34450000,0.04700000
147453,0.30400000,0.05000000
147454,0.28500000,0.04450000
147455,0.23650000,0.04450000
147456,0.18350000,0.05000000
147457,0.13550000,0.04450000
147458,0.08500000,0.04700000
147459,0.03200000,0.03900000
147460,-0.01850000,0.05000000
147461,-0.07100000,0.04150000
147462,-0.11950000,0.05800000
147463,-0.16550000,0.05000000
147464,-0.20900000,0.06350000
147465,-0.25050000,0.05800000
147466,-0.28700000,0.07450000
147467,-0.31950000,0.06650000
147468,-0.34900000,0.07200000
147469,-0.37200000,0.06650000
147470,-0.39300000,0.08000000
147471,-0.40900000,0.06350000
147472,-0.42050000,0.06350000
147473,-0.42700000,0.04150000
147474,-0.43650000,0.03900000
147475,-0.43400000,0.02500000
147476,-0.43850000,0.02800000
147477,-0.43650000,0.01700000
147478,-0.43650000,0.02500000
147479,-0.43200000,0.01700000
147480,-0.42950000,0.02250000
147481,-0.42700000,0.02800000
147482,-0.42500000,0.03600000
147483,-0.42050000,0.07750000
147484,-0.42050000,0.10200000
147485,-0.42050000,0.06350000
147486,-0.41800000,-0.02100000
147487,-0.41550000,-0.08950000
147488,-0.41800000,-0.20200000
147489,-0.41800000,-0.26800000
147490,-0.41800000,-0.30100000
147491,-0.42050000,-0.25400000
147492,-0.41800000,-0.24050000
147493,-0.41800000,-0.22400000
147494,-0.42050000,-0.23750000
147495,-0.42050000,-0.21300000
147496,-0.42050000,-0.17150000
147497,-0.42250000,-0.08400000
147498,-0.42250000,-0.02650000
147499,-0.42250000,0.01150000
147500,-0.42500000,0.01400000
147501,-0.42500000,0.03050000
147502,-0.42500000,0.03050000
147503,-0.42700000,0.04150000
147504,-0.42950000,0.03050000
147505,-0.42950000,0.03900000
147506,-0.43200000,0.03900000
147507,-0.43200000,0.03900000
147508,-0.43650000,0.03900000
147509,-0.43400000,0.03600000
147510,-0.43850000,0.05000000
147511,-0.43650000,0.04700000
147512,-0.43400000,0.05550000
147513,-0.42700000,0.05250000
147514,-0.41350000,0.06650000
147515,-0.38800000,0.05800000
147516,-0.35600000,0.07450000
147517,-0.31250000,0.06900000
147518,-0.25500000,0.08550000
147519,-0.18400000,0.08300000
147520,-0.10550000,0.10750000
147521,-0.02050000,0.10200000
147522,0.06900000,0.11850000
147523,0.15600000,0.11300000
147524,0.24100000,0.12400000
147525,0.31950000,0.11600000
147526,0.38150000,0.12150000
147527,0.43650000,0.11300000
147528,0.47550000,0.11300000
147529,0.50750000,0.09950000
147530,0.52350000,0.09400000
147531,0.53050000,0.08300000
147532,0.53050000,0.07750000
147533,0.52150000,0.06900000
147534,0.50300000,0.05800000
147535,0.48450000,0.05800000
147536,0.45700000,0.04700000
147537,0.42500000,0.05250000
147538,0.38800000,0.03600000
147539,0.34700000,0.04150000
147540,0.30100000,0.03350000
147541,0.25050000,0.04450000
147542,0.20200000,0.03350000
147543,0.15150000,0.04450000
147544,0.09650000,0.03350000
147545,0.04350000,0.04150000
147546,-0.01400000,0.03350000
147547,-0.06650000,0.04700000
147548,-0.11950000,0.03900000
147549,-0.17450000,0.05000000
147550,-0.22750000,0.04450000
147551,-0.27800000,0.05250000
147552,-0.32600000,0.04700000
147553,-0.37000000,0.05550000
147554,-0.40900000,0.05550000
147555,-0.44550000,0.05800000
147556,-0.47550000,0.06100000
147557,-0.50300000,0.06650000
147558,-0.52600000,0.07200000
147559,-0.54450000,0.06350000
147560,-0.55800000,0.05250000
147561,-0.57200000,0.03350000
147562,-0.57650000,0.02800000
147563,-0.58350000,0.01400000
147564,-0.58550000,0.02500000
147565,-0.58800000,0.01150000
147566,-0.58800000,0.02250000
147567,-0.58350000,0.01150000
147568,-0.58350000,0.02250000
147569,-0.58100000,0.01150000
147570,-0.57650000,0.03350000
147571,-0.57200000,0.05800000
147572,-0.56750000,0.09650000
147573,-0.55800000,0.04700000
147574,-0.55600000,-0.01250000
147575,-0.55150000,-0.07850000
147576,-0.55150000,-0.16900000
147577,-0.54650000,-0.24850000
147578,-0.54900000,-0.27600000
147579,-0.54650000,-0.25150000
147580,-0.54900000,-0.22100000
147581,-0.55150000,-0.21550000
147582,-0.58100000,-0.22400000
147583,-0.58350000,-0.20750000
147584,-0.58550000,-0.16350000
147585,-0.58550000,-0.08700000
147586,-0.58800000,-0.03750000
147587,-0.58800000,0.00100000
147588,-0.59000000,0.00350000
147589,-0.59250000,0.01700000
147590,-0.59000000,0.01150000
147591,-0.59700000,0.01950000
147592,-0.59950000,0.01150000
147593,-0.60400000,0.02250000
147594,-0.60850000,0.01150000
147595,-0.61550000,0.02500000
147596,-0.62500000,0.01700000
147597,-0.62950000,0.03050000
147598,-0.63650000,0.01950000
147599,-0.64100000,0.03050000
147600,-0.64100000,0.02800000
147601,-0.63850000,0.04150000
147602,-0.62950000,0.03600000
147603,-0.61100000,0.04700000
147604,-0.57850000,0.04700000
147605,-0.53500000,0.05800000
147606,-0.47750000,0.06100000
147607,-0.39900000,0.06900000
147608,-0.31150000,0.07750000
147609,-0.21200000,0.08300000
147610,-0.10600000,0.09400000
147611,0.00200000,0.09650000
147612,0.11050000,0.10500000
147613,0.20700000,0.09650000
147614,0.29950000,0.10200000
147615,0.37300000,0.08550000
147616,0.43550000,0.08550000
147617,0.48400000,0.07200000
147618,0.52050000,0.07450000
147619,0.54150000,0.05550000
147620,0.55050000,0.05550000
147621,0.55050000,0.04150000
147622,0.54350000,0.04450000
147623,0.53000000,0.02500000
147624,0.50700000,0.03350000
147625,0.48150000,0.02250000
147626,0.45150000,0.02800000
147627,0.41450000,0.02500000
147628,0.37550000,0.02800000
147629,0.33150000,0.02250000
147630,0.28350000,0.01700000
147631,0.23500000,0.01700000
147632,0.18200000,0.01700000
147633,0.12650000,0.01700000
147634,0.07350000,0.01150000
147635,0.01800000,0.01950000
147636,-0.03950000,0.01400000
147637,-0.08800000,0.01950000
147638,-0.14100000,0.01950000
147639,-0.18450000,0.03900000
147640,-0.22600000,0.03050000
147641,-0.26050000,0.04150000
147642,-0.29300000,0.03600000
147643,-0.31350000,0.05550000
147644,-0.32750000,0.03600000
147645,-0.33200000,0.05250000
147646,-0.32650000,0.03600000
147647,-0.32200000,0.05250000
147648,-0.31950000,0.03900000
147649,-0.31950000,0.03350000
147650,-0.32200000,0.01700000
147651,-0.33100000,0.01150000
147652,-0.34450000,0.00350000
147653,-0.36050000,0.00350000
147654,-0.37650000,0.00600000
147655,-0.38600000,0.00900000
147656,-0.39050000,0.00850000
147657,-0.38800000,0.00600000
147658,-0.37450000,0.01400000
147659,-0.36050000,0.03600000
147660,-0.34250000,0.07450000
147661,-0.32400000,0.05000000
147662,-0.30800000,-0.00450000
147663,-0.29700000,-0.07050000
147664,-0.28550000,-0.15000000
147665,-0.27850000,-0.25400000
147666,-0.27150000,-0.28700000
147667,-0.26700000,-0.27350000
147668,-0.26250000,-0.23500000
147669,-0.25800000,-0.24300000
147670,-0.25350000,-0.23200000
147671,-0.24900000,-0.22650000
147672,-0.24900000,-0.18000000
147673,-0.24450000,-0.14450000
147674,-0.24200000,-0.05650000
147675,-0.24200000,-0.00700000
147676,-0.24200000,0.02250000
147677,-0.24200000,0.01700000
147678,-0.24650000,0.03050000
147679,-0.25100000,0.02800000
147680,-0.25800000,0.04450000
147681,-0.26700000,0.03900000
147682,-0.27850000,0.03900000
147683,-0.29450000,0.04700000
147684,-0.30600000,0.04450000
147685,-0.31750000,0.05000000
147686,-0.32850000,0.04700000
147687,-0.33350000,0.05550000
147688,-0.34000000,0.05000000
147689,-0.34450000,0.07200000
147690,-0.34950000,0.06100000
147691,-0.35150000,0.07200000
147692,-0.34950000,0.07750000
147693,-0.34700000,0.09100000
147694,-0.33800000,0.08000000
147695,-0.32400000,0.10750000
147696,-0.30350000,0.10500000
147697,-0.27150000,0.12400000
147698,-0.23050000,0.12700000
147699,-0.18250000,0.14050000
147700,-0.12550000,0.14350000
147701,-0.05950000,0.15450000
147702,0.00650000,0.14600000
147703,0.07500000,0.15150000
147704,0.14350000,0.14050000
147705,0.20500000,0.13250000
147706,0.26000000,0.12400000
147707,0.30300000,0.11600000
147708,0.33750000,0.10750000
147709,0.36000000,0.09650000
147710,0.35150000,0.09100000
147711,0.34900000,0.08300000
147712,0.34450000,0.08300000
147713,0.32600000,0.07750000
147714,0.30550000,0.08300000
147715,0.28050000,0.06900000
147716,0.24650000,0.07750000
147717,0.21450000,0.06900000
147718,0.17800000,0.07750000
147719,0.13700000,0.07200000
147720,0.09350000,0.08300000
147721,0.04800000,0.07450000
147722,-0.00250000,0.07750000
147723,-0.05450000,0.07450000
147724,-0.10500000,0.08550000
147725,-0.15300000,0.07750000
147726,-0.20300000,0.09650000
147727,-0.24650000,0.09100000
147728,-0.28950000,0.09950000
147729,-0.33100000,0.10200000
147730,-0.36500000,0.11050000
147731,-0.39700000,0.11050000
147732,-0.42650000,0.11050000
147733,-0.45150000,0.11600000
147734,-0.47200000,0.12150000
147735,-0.49500000,0.12150000
147736,-0.51350000,0.10200000
147737,-0.52450000,0.09100000
147738,-0.53600000,0.07750000
147739,-0.53850000,0.07750000
147740,-0.54300000,0.07200000
147741,-0.53850000,0.07750000
147742,-0.53150000,0.06650000
147743,-0.52450000,0.07750000
147744,-0.51350000,0.06650000
147745,-0.49950000,0.07750000
147746,-0.48600000,0.08300000
147747,-0.47000000,0.13500000
147748,-0.45400000,0.14900000
147749,-0.43800000,0.09650000
147750,-0.42450000,0.01450000
147751,-0.40850000,-0.04550000
147752,-0.39250000,-0.16650000
147753,-0.37850000,-0.21850000
147754,-0.36750000,-0.23500000
147755,-0.35150000,-0.19350000
147756,-0.33750000,-0.17450000
147757,-0.32400000,-0.16900000
147758,-0.31000000,-0.16350000
147759,-0.29450000,-0.14700000
147760,-0.27850000,-0.10050000
147761,-0.26450000,-0.02900000
147762,-0.25300000,0.02800000
147763,-0.23950000,0.06650000
147764,-0.23050000,0.08550000
147765,-0.22150000,0.08300000
147766,-0.21450000,0.09950000
147767,-0.21200000,0.09650000
147768,-0.21000000,0.10750000
147769,-0.21000000,0.09950000
147770,-0.21650000,0.10750000
147771,-0.22350000,0.09950000
147772,-0.23050000,0.11850000
147773,-0.23700000,0.10750000
147774,-0.23650000,0.12400000
147775,-0.24600000,0.11600000
147776,-0.25550000,0.12700000
147777,-0.26050000,0.12400000
147778,-0.25800000,0.13250000
147779,-0.24850000,0.13500000
147780,-0.22450000,0.14600000
147781,-0.18900000,0.15150000
147782,-0.13700000,0.15400000
147783,-0.07100000,0.16500000
147784,0.00700000,0.17300000
147785,0.09950000,0.18400000
147786,0.19650000,0.18700000
147787,0.29600000,0.19800000
147788,0.39050000,0.19800000
147789,0.48550000,0.20600000
147790,0.56350000,0.19800000
147791,0.63200000,0.19800000
147792,0.68650000,0.18700000
147793,0.72450000,0.18400000
147794,0.74800000,0.16500000
147795,0.76250000,0.16500000
147796,0.76000000,0.14900000
147797,0.75050000,0.15450000
147798,0.73400000,0.13500000
147799,0.70800000,0.13250000
147800,0.67700000,0.12400000
147801,0.63950000,0.12700000
147802,0.59900000,0.11600000
147803,0.55400000,0.12150000
147804,0.50450000,0.11600000
147805,0.45700000,0.12150000
147806,0.40000000,0.11850000
147807,0.34550000,0.11600000
147808,0.28900000,0.11600000
147809,0.23450000,0.11050000
147810,0.17750000,0.11050000
147811,0.12100000,0.11050000
147812,0.06400000,0.12150000
147813,0.00700000,0.12950000
147814,-0.04500000,0.14600000
147815,-0.09700000,0.12400000
147816,-0.14650000,0.12950000
147817,-0.19400000,0.12700000
147818,-0.23650000,0.14350000
147819,-0.28150000,0.13500000
147820,-0.32200000,0.15150000
147821,-0.35750000,0.14350000
147822,-0.39050000,0.15450000
147823,-0.42100000,0.13250000
147824,-0.44950000,0.13250000
147825,-0.47550000,0.10750000
147826,-0.50150000,0.10750000
147827,-0.52300000,0.09400000
147828,-0.54450000,0.09650000
147829,-0.56350000,0.09100000
147830,-0.57750000,0.09950000
147831,-0.59150000,0.09400000
147832,-0.60600000,0.09650000
147833,-0.61550000,0.10200000
147834,-0.62500000,0.12700000
147835,-0.63200000,0.16500000
147836,-0.63650000,0.15700000
147837,-0.64350000,0.09100000
147838,-0.64150000,0.01700000
147839,-0.64350000,-0.07050000
147840,-0.64350000,-0.17150000
147841,-0.64600000,-0.21300000
147842,-0.64600000,-0.21550000
147843,-0.65100000,-0.16600000
147844,-0.65550000,-0.15550000
147845,-0.66050000,-0.15550000
147846,-0.66750000,-0.16900000
147847,-0.67450000,-0.13100000
147848,-0.68400000,-0.06200000
147849,-0.69350000,0.01450000
147850,-0.70050000,0.05550000
147851,-0.70750000,0.08550000
147852,-0.71950000,0.08850000
147853,-0.72650000,0.09950000
147854,-0.73600000,0.09650000
147855,-0.74300000,0.10500000
147856,-0.75050000,0.09950000
147857,-0.75500000,0.10500000
147858,-0.76200000,0.10750000
147859,-0.76450000,0.11600000
147860,-0.77150000,0.10750000
147861,-0.77400000,0.09950000
147862,-0.77650000,0.10750000
147863,-0.78350000,0.10750000
147864,-0.78350000,0.12400000
147865,-0.77850000,0.11600000
147866,-0.76700000,0.12950000
147867,-0.74300000,0.12400000
147868,-0.70550000,0.14350000
147869,-0.64600000,0.14050000
147870,-0.57250000,0.15150000
147871,-0.47550000,0.14600000
147872,-0.36700000,0.16500000
147873,-0.24350000,0.16500000
147874,-0.11350000,0.17600000
147875,0.01650000,0.17850000
147876,0.14450000,0.18950000
147877,0.25600000,0.17300000
147878,0.35500000,0.18150000
147879,0.43800000,0.16750000
147880,0.50200000,0.17300000
147881,0.54700000,0.15700000
147882,0.57550000,0.14350000
147883,0.58950000,0.13250000
147884,0.59200000,0.12950000
147885,0.57750000,0.12150000
147886,0.55650000,0.11300000
147887,0.52550000,0.11050000
147888,0.48550000,0.10200000
147889,0.44050000,0.10750000
147890,0.39050000,0.09400000
147891,0.33850000,0.09650000
147892,0.27700000,0.08850000
147893,0.22050000,0.10200000
147894,0.15650000,0.08850000
147895,0.09950000,0.09950000
147896,0.03350000,0.09100000
147897,-0.02600000,0.09650000
147898,-0.08750000,0.08300000
147899,-0.15150000,0.09950000
147900,-0.21300000,0.09650000
147901,-0.26950000,0.10750000
147902,-0.27850000,0.11050000
147903,-0.32050000,0.11850000
147904,-0.36300000,0.11050000
147905,-0.39850000,0.11600000
147906,-0.43250000,0.11600000
147907,-0.45550000,0.11850000
147908,-0.47450000,0.12700000
147909,-0.48950000,0.12700000
147910,-0.50650000,0.12400000
147911,-0.51450000,0.11050000
147912,-0.52500000,0.09950000
147913,-0.53150000,0.08000000
147914,-0.54000000,0.08300000
147915,-0.55250000,0.07750000
147916,-0.56750000,0.08000000
147917,-0.58450000,0.06900000
147918,-0.60350000,0.07750000
147919,-0.62250000,0.06100000
147920,-0.63700000,0.07450000
147921,-0.65200000,0.06900000
147922,-0.66250000,0.11600000
147923,-0.66450000,0.13800000
147924,-0.66250000,0.11600000
147925,-0.65800000,0.02800000
147926,-0.64950000,-0.02100000
147927,-0.64150000,-0.13050000
147928,-0.63700000,-0.20200000
147929,-0.63300000,-0.24300000
147930,-0.63500000,-0.21000000
147931,-0.64150000,-0.19350000
147932,-0.64950000,-0.18250000
147933,-0.65800000,-0.18550000
147934,-0.66650000,-0.18000000
147935,-0.67100000,-0.13350000
147936,-0.67500000,-0.05650000
147937,-0.67700000,0.00900000
147938,-0.67500000,0.04150000
147939,-0.66650000,0.06650000
147940,-0.65800000,0.06100000
147941,-0.64750000,0.07750000
147942,-0.63500000,0.06650000
147943,-0.61800000,0.07750000
147944,-0.60100000,0.06900000
147945,-0.58650000,0.07750000
147946,-0.57600000,0.06900000
147947,-0.56100000,0.08000000
147948,-0.55500000,0.07450000
147949,-0.54850000,0.08000000
147950,-0.54200000,0.07450000
147951,-0.53600000,0.08300000
147952,-0.52950000,0.08000000
147953,-0.52100000,0.09100000
147954,-0.50200000,0.09100000
147955,-0.47900000,0.09950000
147956,-0.44500000,0.09950000
147957,-0.39650000,0.10750000
147958,-0.33950000,0.11300000
147959,-0.27200000,0.12400000
147960,-0.19600000,0.13250000
147961,-0.11400000,0.13800000
147962,-0.03600000,0.14600000
147963,0.04650000,0.14350000
147964,0.12000000,0.15150000
147965,0.19000000,0.14600000
147966,0.25550000,0.14900000
147967,0.30200000,0.13500000
147968,0.34000000,0.13500000
147969,0.36500000,0.11050000
147970,0.38200000,0.11300000
147971,0.39050000,0.09400000
147972,0.38850000,0.09650000
147973,0.38600000,0.07750000
147974,0.37350000,0.07750000
147975,0.35650000,0.06900000
147976,0.33550000,0.07450000
147977,0.31450000,0.06350000
147978,0.28500000,0.06350000
147979,0.25550000,0.05800000
147980,0.22600000,0.06100000
147981,0.19400000,0.06100000
147982,0.15850000,0.06100000
147983,0.11850000,0.05800000
147984,0.08450000,0.06100000
147985,0.04250000,0.06100000
147986,0.00650000,0.05250000
147987,-0.03550000,0.06100000
147988,-0.07350000,0.05800000
147989,-0.10950000,0.06650000
147990,-0.14350000,0.06100000
147991,-0.17500000,0.07450000
147992,-0.20450000,0.06350000
147993,-0.23200000,0.08000000
147994,-0.25500000,0.07750000
147995,-0.27600000,0.08550000
147996,-0.29300000,0.07750000
147997,-0.31000000,0.08850000
147998,-0.32250000,0.08000000
147999,-0.33500000,0.08000000
148000,-0.34150000,0.06350000
148001,-0.35000000,0.05550000
148002,-0.35400000,0.03600000
148003,-0.35650000,0.03900000
148004,-0.35650000,0.03050000
148005,-0.35650000,0.03600000
148006,-0.35650000,0.02800000
148007,-0.35400000,0.03350000
148008,-0.35400000,0.03350000
148009,-0.35200000,0.03900000
148010,-0.35200000,0.06100000
148011,-0.35200000,0.09650000
148012,-0.34800000,0.09650000
148013,-0.34600000,0.01950000
148014,-0.34600000,-0.03450000
148015,-0.34150000,-0.12000000
148016,-0.34150000,-0.19650000
148017,-0.33950000,-0.25950000
148018,-0.33500000,-0.25150000
148019,-0.33300000,-0.22100000
148020,-0.33300000,-0.20200000
148021,-0.33100000,-0.21300000
148022,-0.32900000,-0.19900000
148023,-0.32900000,-0.18000000
148024,-0.32700000,-0.10900000
148025,-0.32900000,-0.04850000
148026,-0.32700000,-0.00150000
148027,-0.32900000,0.01150000
148028,-0.32700000,0.02800000
148029,-0.32700000,0.02800000
148030,-0.31200000,0.03050000
148031,-0.31400000,0.02800000
148032,-0.31400000,0.03350000
148033,-0.31200000,0.02800000
148034,-0.31400000,0.03050000
148035,-0.31200000,0.03050000
148036,-0.31200000,0.03050000
148037,-0.31400000,0.03900000
148038,-0.31200000,0.03600000
148039,-0.31000000,0.04150000
148040,-0.30800000,0.03900000
148041,-0.30600000,0.05250000
148042,-0.29750000,0.04700000
148043,-0.28750000,0.06100000
148044,-0.26950000,0.05800000
148045,-0.24300000,0.07450000
148046,-0.20250000,0.06900000
148047,-0.15600000,0.08550000
148048,-0.09750000,0.07750000
148049,-0.03450000,0.09650000
148050,0.03800000,0.09650000
148051,0.11100000,0.10750000
148052,0.18200000,0.10200000
148053,0.24850000,0.11050000
148054,0.30950000,0.09650000
148055,0.35600000,0.09950000
148056,0.39450000,0.08850000
148057,0.42050000,0.08850000
148058,0.43700000,0.07450000
148059,0.44700000,0.06650000
148060,0.44500000,0.05800000
148061,0.44100000,0.05000000
148062,0.42650000,0.04450000
148063,0.41250000,0.03900000
148064,0.39250000,0.03900000
148065,0.36600000,0.02800000
148066,0.33750000,0.03050000
148067,0.30750000,0.02500000
148068,0.27500000,0.03050000
148069,0.23650000,0.02500000
148070,0.20000000,0.03350000
148071,0.15950000,0.01950000
148072,0.11700000,0.02800000
148073,0.07650000,0.01700000
148074,0.03400000,0.02800000
148075,-0.00850000,0.01700000
148076,-0.04900000,0.03050000
148077,-0.08700000,0.03050000
148078,-0.12550000,0.04150000
148079,-0.16200000,0.02800000
148080,-0.19450000,0.03900000
148081,-0.22500000,0.04450000
148082,-0.25300000,0.05250000
148083,-0.27950000,0.04700000
148084,-0.29950000,0.05000000
148085,-0.31800000,0.05000000
148086,-0.33600000,0.05250000
148087,-0.34600000,0.05250000
148088,-0.36050000,0.03350000
148089,-0.36650000,0.02250000
148090,-0.37450000,0.00350000
148091,-0.38050000,0.00600000
148092,-0.38450000,0.00100000
148093,-0.38650000,0.00850000
148094,-0.37650000,0.00100000
148095,-0.37450000,0.00600000
148096,-0.37450000,0.00100000
148097,-0.37450000,0.00850000
148098,-0.37200000,0.01700000
148099,-0.37000000,0.06350000
148100,-0.36600000,0.05800000
148101,-0.36400000,0.00350000
148102,-0.36200000,-0.06750000
148103,-0.36200000,-0.12250000
148104,-0.35950000,-0.22400000
148105,-0.36200000,-0.27050000
148106,-0.35950000,-0.29250000
148107,-0.35750000,-0.25400000
148108,-0.35750000,-0.24050000
148109,-0.35750000,-0.23500000
148110,-0.35750000,-0.22950000
148111,-0.35950000,-0.21300000
148112,-0.36200000,-0.15800000
148113,-0.36200000,-0.08950000
148114,-0.36400000,-0.02900000
148115,-0.36400000,-0.00700000
148116,-0.36400000,0.00100000
148117,-0.36600000,0.00350000
148118,-0.36600000,0.00850000
148119,-0.37000000,0.00100000
148120,-0.37000000,0.00850000
148121,-0.37200000,0.01150000
148122,-0.37450000,0.01700000
148123,-0.37450000,0.00600000
148124,-0.37650000,0.01950000
148125,-0.37650000,0.01150000
148126,-0.38050000,0.02800000
148127,-0.38050000,0.01950000
148128,-0.38050000,0.03600000
148129,-0.37850000,0.02800000
148130,-0.37450000,0.03350000
148131,-0.36600000,0.03600000
148132,-0.35150000,0.05000000
148133,-0.32450000,0.05250000
148134,-0.28900000,0.06650000
148135,-0.24350000,0.07750000
148136,-0.18950000,0.08000000
148137,-0.12100000,0.08000000
148138,-0.05000000,0.08850000
148139,0.02700000,0.10200000
148140,0.10350000,0.09400000
148141,0.18050000,0.10750000
148142,0.24500000,0.09400000
148143,0.30300000,0.09950000
148144,0.35100000,0.08300000
148145,0.38850000,0.08550000
148146,0.41350000,0.06900000
148147,0.42600000,0.07450000
148148,0.43600000,0.05550000
148149,0.43200000,0.05250000
148150,0.42350000,0.03050000
148151,0.41100000,0.03350000
148152,0.39250000,0.02500000
148153,0.36950000,0.03050000
148154,0.34250000,0.02250000
148155,0.31350000,0.03050000
148156,0.27800000,0.02500000
148157,0.24500000,0.03050000
148158,0.18700000,0.02800000
148159,0.14800000,0.02800000
148160,0.10450000,0.02800000
148161,0.06350000,0.02500000
148162,0.02050000,0.02500000
148163,-0.02050000,0.02250000
148164,-0.06350000,0.03350000
148165,-0.10300000,0.03600000
148166,-0.14400000,0.04700000
148167,-0.18100000,0.03600000
148168,-0.21800000,0.05550000
148169,-0.24850000,0.05250000
148170,-0.27950000,0.06100000
148171,-0.30600000,0.05250000
148172,-0.32650000,0.06650000
148173,-0.34750000,0.05550000
148174,-0.36350000,0.06900000
148175,-0.37800000,0.05250000
148176,-0.39050000,0.05000000
148177,-0.39850000,0.01950000
148178,-0.40500000,0.02500000
148179,-0.40700000,0.01700000
148180,-0.40900000,0.01700000
148181,-0.41100000,0.01150000
148182,-0.41300000,0.01700000
148183,-0.41100000,0.01700000
148184,-0.40700000,0.01700000
148185,-0.40700000,0.03050000
148186,-0.40050000,0.06100000
148187,-0.39850000,0.09650000
148188,-0.39450000,0.06100000
148189,-0.39250000,-0.01000000
148190,-0.38850000,-0.08150000
148191,-0.38850000,-0.17700000
148192,-0.38450000,-0.26800000
148193,-0.38450000,-0.28700000
148194,-0.38000000,-0.28450000
148195,-0.37600000,-0.24050000
148196,-0.37600000,-0.23750000
148197,-0.37600000,-0.22100000
148198,-0.37400000,-0.22400000
148199,-0.37000000,-0.18000000
148200,-0.36800000,-0.13350000
148201,-0.36350000,-0.04850000
148202,-0.36600000,-0.00700000
148203,-0.36350000,0.02500000
148204,-0.36150000,0.03050000
148205,-0.36350000,0.04150000
148206,-0.36600000,0.03350000
148207,-0.36600000,0.03900000
148208,-0.36600000,0.04150000
148209,-0.36800000,0.04150000
148210,-0.36800000,0.04450000
148211,-0.37200000,0.05000000
148212,-0.37400000,0.05550000
148213,-0.37400000,0.05250000
148214,-0.37600000,0.06100000
148215,-0.38000000,0.05800000
148216,-0.38000000,0.06650000
148217,-0.37800000,0.06350000
148218,-0.37800000,0.07750000
148219,-0.37400000,0.07450000
148220,-0.36350000,0.09100000
148221,-0.34750000,0.09100000
148222,-0.32250000,0.10750000
148223,-0.28750000,0.10200000
148224,-0.24450000,0.11850000
148225,-0.19100000,0.12150000
148226,-0.12750000,0.14050000
148227,-0.05950000,0.13250000
148228,0.01650000,0.14900000
148229,0.08850000,0.14050000
148230,0.15800000,0.13800000
148231,0.22000000,0.12400000
148232,0.27300000,0.12400000
148233,0.31850000,0.11050000
148234,0.35350000,0.09950000
148235,0.37400000,0.08550000
148236,0.38600000,0.07750000
148237,0.39050000,0.07200000
148238,0.38600000,0.06650000
148239,0.37600000,0.06100000
148240,0.36150000,0.05250000
148241,0.33700000,0.05550000
148242,0.31450000,0.04700000
148243,0.28550000,0.05250000
148244,0.25450000,0.04450000
148245,0.22200000,0.05550000
148246,0.18900000,0.04450000
148247,0.15000000,0.05250000
148248,0.11100000,0.04150000
148249,0.07000000,0.05550000
148250,0.03300000,0.04150000
148251,-0.01050000,0.05800000
148252,-0.05150000,0.05250000
148253,-0.09050000,0.06350000
148254,-0.12750000,0.05800000
148255,-0.16250000,0.07200000
148256,-0.19750000,0.06900000
148257,-0.22800000,0.07450000
148258,-0.25700000,0.07750000
148259,-0.27950000,0.08000000
148260,-0.30200000,0.07750000
148261,-0.31850000,0.08300000
148262,-0.33300000,0.08300000
148263,-0.34300000,0.06650000
148264,-0.35550000,0.05250000
148265,-0.35950000,0.03600000
148266,-0.36350000,0.03600000
148267,-0.36600000,0.02800000
148268,-0.36800000,0.03900000
148269,-0.37000000,0.02800000
148270,-0.37000000,0.03900000
148271,-0.37200000,0.03050000
148272,-0.37200000,0.04450000
148273,-0.37000000,0.05250000
148274,-0.36800000,0.09650000
148275,-0.37000000,0.10200000
148276,-0.37000000,0.05000000
148277,-0.36350000,-0.02900000
148278,-0.36150000,-0.10050000
148279,-0.35950000,-0.22400000
148280,-0.35750000,-0.27050000
148281,-0.35350000,-0.28700000
148282,-0.35150000,-0.24300000
148283,-0.34950000,-0.22950000
148284,-0.34500000,-0.21850000
148285,-0.34300000,-0.21300000
148286,-0.38300000,-0.19650000
148287,-0.38300000,-0.15000000
148288,-0.38100000,-0.07850000
148289,-0.38100000,-0.01550000
148290,-0.37600000,0.01700000
148291,-0.37850000,0.03350000
148292,-0.37400000,0.03350000
148293,-0.37600000,0.04450000
148294,-0.37600000,0.03600000
148295,-0.37600000,0.04700000
148296,-0.37850000,0.04150000
148297,-0.37850000,0.05250000
148298,-0.37600000,0.04450000
148299,-0.37600000,0.05800000
148300,-0.37850000,0.04700000
148301,-0.37850000,0.06100000
148302,-0.37850000,0.05550000
148303,-0.38100000,0.06900000
148304,-0.37850000,0.05800000
148305,-0.37600000,0.07450000
148306,-0.36700000,0.07450000
148307,-0.35300000,0.08300000
148308,-0.32950000,0.08850000
148309,-0.29450000,0.09950000
148310,-0.25000000,0.10200000
148311,-0.19150000,0.10500000
148312,-0.11900000,0.11600000
148313,-0.03950000,0.12400000
148314,0.04450000,0.12950000
148315,0.13300000,0.12700000
148316,0.21500000,0.13800000
148317,0.29450000,0.12700000
148318,0.36200000,0.12950000
148319,0.41800000,0.11850000
148320,0.46000000,0.11300000
148321,0.48800000,0.08850000
148322,0.50700000,0.09100000
148323,0.51400000,0.07200000
148324,0.51150000,0.07450000
148325,0.50450000,0.05550000
148326,0.48600000,0.06100000
148327,0.46500000,0.04700000
148328,0.43700000,0.05550000
148329,0.40400000,0.04700000
148330,0.36650000,0.05000000
148331,0.32950000,0.04450000
148332,0.28500000,0.04700000
148333,0.24050000,0.03900000
148334,0.19600000,0.04450000
148335,0.14700000,0.04450000
148336,0.10300000,0.04150000
148337,0.05600000,0.03900000
148338,0.00700000,0.03900000
148339,-0.03950000,0.04700000
148340,-0.07950000,0.05000000
148341,-0.12150000,0.06100000
148342,-0.16100000,0.05550000
148343,-0.19600000,0.06650000
148344,-0.22900000,0.06650000
148345,-0.25950000,0.07750000
148346,-0.28500000,0.06650000
148347,-0.31050000,0.07750000
148348,-0.33150000,0.06900000
148349,-0.35050000,0.08300000
148350,-0.44200000,0.06350000
148351,-0.45300000,0.06350000
148352,-0.46600000,0.03050000
148353,-0.47950000,0.03350000
148354,-0.48750000,0.01700000
148355,-0.49550000,0.02250000
148356,-0.50100000,0.01700000
148357,-0.50350000,0.01950000
148358,-0.50600000,0.01700000
148359,-0.50900000,0.01950000
148360,-0.50600000,0.02500000
148361,-0.50900000,0.05000000
148362,-0.50600000,0.08850000
148363,-0.50600000,0.08300000
148364,-0.50900000,0.01450000
148365,-0.50600000,-0.05400000
148366,-0.50600000,-0.14700000
148367,-0.50350000,-0.24600000
148368,-0.50350000,-0.29000000
148369,-0.50350000,-0.29000000
148370,-0.50100000,-0.24300000
148371,-0.49800000,-0.23750000
148372,-0.49800000,-0.23200000
148373,-0.49550000,-0.23750000
148374,-0.49300000,-0.19100000
148375,-0.49300000,-0.13600000
148376,-0.48750000,-0.05100000
148377,-0.48750000,-0.00700000
148378,-0.48750000,0.01400000
148379,-0.49000000,0.01400000
148380,-0.49300000,0.02800000
148381,-0.49550000,0.02500000
148382,-0.49300000,0.02800000
148383,-0.49800000,0.02500000
148384,-0.50100000,0.03350000
148385,-0.50600000,0.03050000
148386,-0.50600000,0.03350000
148387,-0.51150000,0.03600000
148388,-0.51400000,0.03350000
148389,-0.51400000,0.03900000
148390,-0.51400000,0.03900000
148391,-0.51150000,0.05000000
148392,-0.50600000,0.05000000
148393,-0.50100000,0.06350000
148394,-0.48500000,0.05800000
148395,-0.46350000,0.06900000
148396,-0.42600000,0.06900000
148397,-0.37850000,0.08300000
148398,-0.31700000,0.08000000
148399,-0.23700000,0.09950000
148400,-0.14650000,0.09400000
148401,-0.05050000,0.11300000
148402,0.05050000,0.10750000
148403,0.14900000,0.11850000
148404,0.24500000,0.11300000
148405,0.33300000,0.11600000
148406,0.39950000,0.10200000
148407,0.45550000,0.09650000
148408,0.49550000,0.08300000
148409,0.52500000,0.07750000
148410,0.53550000,0.06650000
148411,0.53800000,0.06100000
148412,0.52750000,0.05000000
148413,0.51150000,0.04700000
148414,0.48200000,0.03900000
148415,0.45250000,0.03350000
148416,0.41800000,0.03600000
148417,0.37800000,0.02800000
148418,0.33800000,0.03050000
148419,0.29300000,0.02500000
148420,0.24250000,0.03600000
148421,0.19450000,0.02500000
148422,0.13850000,0.03600000
148423,0.08800000,0.02250000
148424,0.03450000,0.03350000
148425,-0.01900000,0.02250000
148426,-0.07500000,0.03350000
148427,-0.12550000,0.02500000
148428,-0.17350000,0.03900000
148429,-0.22150000,0.03350000
148430,-0.26400000,0.05000000
148431,-0.30100000,0.03900000
148432,-0.33850000,0.05800000
148433,-0.37050000,0.05000000
148434,-0.39450000,0.05250000
148435,-0.42100000,0.05000000
148436,-0.44500000,0.05800000
148437,-0.46350000,0.06100000
148438,-0.47950000,0.05250000
148439,-0.49300000,0.03900000
148440,-0.50350000,0.02500000
148441,-0.51150000,0.01950000
148442,-0.51700000,0.00600000
148443,-0.52250000,0.01150000
148444,-0.51950000,0.00600000
148445,-0.52250000,0.01400000
148446,-0.52500000,0.00350000
148447,-0.52500000,0.01400000
148448,-0.52750000,0.00600000
148449,-0.52750000,0.03900000
148450,-0.52750000,0.06650000
148451,-0.53050000,0.08300000
148452,-0.53300000,0.01150000
148453,-0.53050000,-0.04300000
148454,-0.53300000,-0.12500000
148455,-0.53300000,-0.21300000
148456,-0.53050000,-0.27600000
148457,-0.53050000,-0.27900000
148458,-0.52750000,-0.25150000
148459,-0.53050000,-0.22650000
148460,-0.53050000,-0.23500000
148461,-0.53050000,-0.22650000
148462,-0.53050000,-0.20750000
148463,-0.52750000,-0.14450000
148464,-0.53050000,-0.07050000
148465,-0.53050000,-0.01800000
148466,-0.52750000,0.00100000
148467,-0.53300000,0.00600000
148468,-0.53050000,0.01700000
148469,-0.53050000,0.00600000
148470,-0.52750000,0.01950000
148471,-0.53050000,0.01400000
148472,-0.52750000,0.01950000
148473,-0.52500000,0.01150000
148474,-0.52500000,0.02250000
148475,-0.52250000,0.01150000
148476,-0.52250000,0.02500000
148477,-0.51950000,0.01950000
148478,-0.50150000,0.03050000
148479,-0.49850000,0.03050000
148480,-0.49850000,0.04150000
148481,-0.48850000,0.03600000
148482,-0.48050000,0.04700000
148483,-0.45750000,0.04450000
148484,-0.42400000,0.05800000
148485,-0.38050000,0.06100000
148486,-0.31900000,0.07200000
148487,-0.24950000,0.07750000
148488,-0.16200000,0.08300000
148489,-0.06950000,0.09400000
148490,0.02800000,0.08850000
148491,0.12600000,0.10200000
148492,0.22100000,0.09400000
148493,0.30050000,0.09650000
148494,0.37000000,0.08550000
148495,0.42150000,0.08550000
148496,0.46000000,0.07200000
148497,0.48050000,0.07450000
148498,0.49100000,0.05000000
148499,0.49100000,0.05250000
148500,0.48300000,0.03600000
148501,0.46250000,0.03350000
148502,0.44200000,0.02250000
148503,0.41650000,0.03350000
148504,0.38050000,0.01700000
148505,0.34950000,0.02500000
148506,0.30850000,0.01400000
148507,0.26450000,0.01950000
148508,0.22100000,0.01700000
148509,0.17450000,0.01700000
148510,0.12350000,0.01150000
148511,0.07700000,0.01700000
148512,0.02550000,0.01700000
148513,-0.02600000,0.01150000
148514,-0.07700000,0.01700000
148515,-0.12350000,0.01150000
148516,-0.17500000,0.01950000
148517,-0.21850000,0.01700000
148518,-0.25950000,0.03050000
148519,-0.29800000,0.02250000
148520,-0.33150000,0.03600000
148521,-0.36500000,0.03600000
148522,-0.39600000,0.04150000
148523,-0.41650000,0.03050000
148524,-0.43950000,0.04450000
148525,-0.46000000,0.03900000
148526,-0.47800000,0.04450000
148527,-0.49100000,0.02500000
148528,-0.50400000,0.01950000
148529,-0.51400000,0.00100000
148530,-0.52200000,0.00100000
148531,-0.52950000,-0.00450000
148532,-0.53200000,-0.00150000
148533,-0.53450000,-0.00450000
148534,-0.53750000,0.00100000
148535,-0.53450000,-0.00150000
148536,-0.54000000,0.00100000
148537,-0.53750000,0.00100000
148538,-0.53450000,0.03050000
148539,-0.53750000,0.06350000
148540,-0.53450000,0.01700000
148541,-0.53450000,-0.05100000
148542,-0.53700000,-0.11700000
148543,-0.53700000,-0.19900000
148544,-0.53700000,-0.27600000
148545,-0.53700000,-0.30900000
148546,-0.53700000,-0.29800000
148547,-0.53950000,-0.25400000
148548,-0.54200000,-0.25400000
148549,-0.54450000,-0.24600000
148550,-0.54700000,-0.24850000
148551,-0.54700000,-0.19350000
148552,-0.55250000,-0.13050000
148553,-0.55250000,-0.05950000
148554,-0.55500000,-0.02900000
148555,-0.55500000,-0.00450000
148556,-0.55750000,-0.00450000
148557,-0.56300000,0.00100000
148558,-0.56000000,0.00100000
148559,-0.56550000,0.00100000
148560,-0.56300000,-0.00150000
148561,-0.56550000,0.00100000
148562,-0.56300000,0.00100000
148563,-0.56550000,0.00100000
148564,-0.56800000,0.00100000
148565,-0.56550000,0.00100000
148566,-0.56550000,0.00350000
148567,-0.56550000,0.00350000
148568,-0.56000000,0.01700000
148569,-0.55750000,0.00600000
148570,-0.55000000,0.01950000
148571,-0.53400000,0.01400000
148572,-0.51100000,0.03350000
148573,-0.47700000,0.03050000
148574,-0.42550000,0.05000000
148575,-0.36550000,0.04700000
148576,-0.28800000,0.06350000
148577,-0.19950000,0.05800000
148578,-0.10650000,0.07450000
148579,-0.00500000,0.07750000
148580,0.09100000,0.08550000
148581,0.18400000,0.07750000
148582,0.26700000,0.07750000
148583,0.33450000,0.06900000
148584,0.39150000,0.06650000
148585,0.43050000,0.05000000
148586,0.45400000,0.04450000
148587,0.46200000,0.02500000
148588,0.46450000,0.01950000
148589,0.45650000,0.01700000
148590,0.43850000,0.01700000
148591,0.41500000,0.00600000
148592,0.38400000,0.00600000
148593,0.35000000,0.00850000
148594,0.31400000,0.00100000
148595,0.27250000,0.00600000
148596,0.22850000,0.00100000
148597,0.17900000,0.00350000
148598,0.13000000,0.00100000
148599,0.07800000,0.00350000
148600,0.02350000,0.00100000
148601,-0.02850000,0.00600000
148602,-0.08050000,0.00100000
148603,-0.13500000,0.00100000
148604,-0.18650000,0.00100000
148605,-0.23350000,0.01400000
148606,-0.27350000,0.01400000
148607,-0.31450000,0.01700000
148608,-0.35600000,0.01700000
148609,-0.38950000,0.02500000
148610,-0.42050000,0.01950000
148611,-0.44850000,0.03050000
148612,-0.47450000,0.02800000
148613,-0.49250000,0.03350000
148614,-0.51050000,0.03900000
148615,-0.52600000,0.02250000
148616,-0.53650000,0.01400000
148617,-0.54900000,0.00100000
148618,-0.55700000,0.00100000
148619,-0.56200000,0.00100000
148620,-0.56700000,0.00100000
148621,-0.56700000,-0.00700000
148622,-0.56700000,0.00100000
148623,-0.56700000,-0.00150000
148624,-0.56700000,0.00100000
148625,-0.56200000,0.00100000
148626,-0.56200000,0.03900000
148627,-0.55700000,0.06100000
148628,-0.55450000,0.04700000
148629,-0.54650000,-0.03450000
148630,-0.54400000,-0.09250000
148631,-0.53900000,-0.19900000
148632,-0.53350000,-0.28700000
148633,-0.53100000,-0.31950000
148634,-0.52600000,-0.30350000
148635,-0.52600000,-0.27350000
148636,-0.52350000,-0.25700000
148637,-0.52100000,-0.25150000
148638,-0.52100000,-0.24600000
148639,-0.51850000,-0.21850000
148640,-0.51850000,-0.16350000
148641,-0.51850000,-0.08400000
148642,-0.51850000,-0.03200000
148643,-0.51850000,0.00100000
148644,-0.51850000,0.00350000
148645,-0.51850000,0.01150000
148646,-0.51850000,0.00350000
148647,-0.51850000,0.02250000
148648,-0.51850000,0.01400000
148649,-0.52100000,0.01950000
148650,-0.52350000,0.01150000
148651,-0.52600000,0.02800000
148652,-0.52850000,0.01700000
148653,-0.53100000,0.03050000
148654,-0.53650000,0.02250000
148655,-0.54150000,0.03600000
148656,-0.54400000,0.02800000
148657,-0.54150000,0.04450000
148658,-0.54150000,0.04700000
148659,-0.53100000,0.05550000
148660,-0.51850000,0.05800000
148661,-0.49250000,0.07200000
148662,-0.45900000,0.07450000
148663,-0.40750000,0.08300000
148664,-0.34300000,0.08850000
148665,-0.26800000,0.10200000
148666,-0.18300000,0.10500000
148667,-0.09050000,0.11050000
148668,0.00750000,0.12150000
148669,0.09800000,0.11050000
148670,0.19600000,0.11300000
148671,0.27600000,0.10200000
148672,0.34300000,0.10750000
148673,0.39200000,0.08850000
148674,0.43350000,0.08300000
148675,0.45900000,0.06650000
148676,0.47200000,0.06350000
148677,0.47700000,0.04150000
148678,0.46700000,0.05000000
148679,0.45400000,0.03600000
148680,0.43050000,0.03600000
148681,0.40500000,0.02250000
148682,0.36900000,0.03050000
148683,0.33000000,0.02500000
148684,0.28900000,0.03900000
148685,0.24500000,0.02250000
148686,0.19350000,0.03050000
148687,0.14700000,0.02250000
148688,0.09300000,0.02250000
148689,0.03900000,0.02250000
148690,-0.01550000,0.02250000
148691,-0.07200000,0.02800000
148692,-0.12350000,0.02800000
148693,-0.17250000,0.04150000
148694,-0.22150000,0.03900000
148695,-0.26550000,0.04700000
148696,-0.30900000,0.04150000
148697,-0.35050000,0.05800000
148698,-0.38150000,0.05800000
148699,-0.41250000,0.06350000
148700,-0.44050000,0.05250000
148701,-0.46400000,0.06650000
148702,-0.47950000,0.05550000
148703,-0.49250000,0.05550000
148704,-0.50500000,0.03600000
148705,-0.51300000,0.03350000
148706,-0.51300000,0.01950000
148707,-0.51550000,0.01700000
148708,-0.51550000,0.00600000
148709,-0.51050000,0.01700000
148710,-0.50800000,0.00900000
148711,-0.50250000,0.01400000
148712,-0.50000000,0.01700000
148713,-0.49250000,0.01950000
148714,-0.48700000,0.04700000
148715,-0.48450000,0.08550000
148716,-0.47950000,0.07450000
148717,-0.47400000,-0.00700000
148718,-0.46900000,-0.07050000
148719,-0.46400000,-0.18000000
148720,-0.45600000,-0.26800000
148721,-0.45100000,-0.31150000
148722,-0.44850000,-0.28150000
148723,-0.44050000,-0.25400000
148724,-0.43550000,-0.23500000
148725,-0.43300000,-0.24050000
148726,-0.43050000,-0.22100000
148727,-0.42800000,-0.20750000
148728,-0.42800000,-0.13050000
148729,-0.42550000,-0.06750000
148730,-0.42250000,-0.00450000
148731,-0.42800000,0.00350000
148732,-0.42550000,0.01950000
148733,-0.42800000,0.01700000
148734,-0.42000000,0.03050000
148735,-0.42500000,0.02250000
148736,-0.43050000,0.03050000
148737,-0.43050000,0.02250000
148738,-0.43550000,0.02800000
148739,-0.43800000,0.03050000
148740,-0.44550000,0.03350000
148741,-0.44800000,0.03900000
148742,-0.44800000,0.03900000
148743,-0.45300000,0.04150000
148744,-0.45050000,0.04150000
148745,-0.44300000,0.05250000
148746,-0.42500000,0.05250000
148747,-0.40000000,0.06900000
148748,-0.35950000,0.06350000
148749,-0.30650000,0.07750000
148750,-0.24050000,0.06900000
148751,-0.16450000,0.08850000
148752,-0.07350000,0.08550000
148753,0.02550000,0.10750000
148754,0.12150000,0.10200000
148755,0.22000000,0.12150000
148756,0.31150000,0.11300000
148757,0.39500000,0.12400000
148758,0.46600000,0.11050000
148759,0.52150000,0.11050000
148760,0.56200000,0.09400000
148761,0.59000000,0.09400000
148762,0.60500000,0.07750000
148763,0.61000000,0.07450000
148764,0.60750000,0.06650000
148765,0.59000000,0.05550000
148766,0.56950000,0.05000000
148767,0.54400000,0.03900000
148768,0.51150000,0.03900000
148769,0.47600000,0.03350000
148770,0.43800000,0.03900000
148771,0.39000000,0.03050000
148772,0.34450000,0.03350000
148773,0.29100000,0.02500000
148774,0.23800000,0.03050000
148775,0.18250000,0.02500000
148776,0.12400000,0.03350000
148777,0.06600000,0.02250000
148778,0.00750000,0.03350000
148779,-0.05050000,0.02250000
148780,-0.10650000,0.03900000
148781,-0.15700000,0.03350000
148782,-0.20500000,0.04450000
148783,-0.25300000,0.03600000
148784,-0.29100000,0.05000000
148785,-0.32900000,0.05000000
148786,-0.36450000,0.05800000
148787,-0.39000000,0.05550000
148788,-0.41750000,0.05550000
148789,-0.43300000,0.06100000
148790,-0.45050000,0.05800000
148791,-0.46300000,0.05000000
148792,-0.47350000,0.03600000
148793,-0.48100000,0.02500000
148794,-0.48600000,0.00850000
148795,-0.48600000,0.01150000
148796,-0.48850000,0.00350000
148797,-0.49100000,0.00850000
148798,-0.48450000,0.00350000
148799,-0.48700000,0.01150000
148800,-0.48700000,0.00350000
148801,-0.48700000,0.01950000
148802,-0.48700000,0.03900000
148803,-0.48700000,0.08550000
148804,-0.48950000,0.06100000
148805,-0.48700000,0.00050000
148806,-0.48700000,-0.07600000
148807,-0.48450000,-0.17450000
148808,-0.48450000,-0.27900000
148809,-0.48450000,-0.31150000
148810,-0.48450000,-0.30050000
148811,-0.48700000,-0.25950000
148812,-0.48700000,-0.25400000
148813,-0.48450000,-0.25150000
148814,-0.48450000,-0.25150000
148815,-0.48700000,-0.21000000
148816,-0.48450000,-0.13900000
148817,-0.48200000,-0.06500000
148818,-0.48200000,-0.01250000
148819,-0.47950000,0.00350000
148820,-0.47650000,0.00850000
148821,-0.48200000,0.00350000
148822,-0.47950000,0.01400000
148823,-0.48450000,0.00350000
148824,-0.48950000,0.01400000
148825,-0.49200000,0.00600000
148826,-0.50250000,0.02250000
148827,-0.50750000,0.00850000
148828,-0.51500000,0.02250000
148829,-0.52050000,0.01700000
148830,-0.52800000,0.02800000
148831,-0.52550000,0.01950000
148832,-0.52300000,0.03050000
148833,-0.51000000,0.03350000
148834,-0.48950000,0.04150000
148835,-0.45600000,0.04150000
148836,-0.40500000,0.05550000
148837,-0.34100000,0.05800000
148838,-0.26150000,0.06650000
148839,-0.16650000,0.07450000
148840,-0.06650000,0.07750000
148841,0.04600000,0.08850000
148842,0.15350000,0.09100000
148843,0.25850000,0.09950000
148844,0.35850000,0.09950000
148845,0.44050000,0.10200000
148846,0.51500000,0.09400000
148847,0.56900000,0.09400000
148848,0.61250000,0.07750000
148849,0.64050000,0.07450000
148850,0.65350000,0.05800000
148851,0.65600000,0.06100000
148852,0.64550000,0.03600000
148853,0.63050000,0.04150000
148854,0.60450000,0.02500000
148855,0.57650000,0.03350000
148856,0.53800000,0.01950000
148857,0.49450000,0.02500000
148858,0.45100000,0.01400000
148859,0.40200000,0.01950000
148860,0.35350000,0.01150000
148861,0.29950000,0.01400000
148862,0.22850000,0.00850000
148863,0.17150000,0.01700000
148864,0.11150000,0.01150000
148865,0.05200000,0.01150000
148866,-0.01000000,0.01150000
148867,-0.06950000,0.00900000
148868,-0.12700000,0.01700000
148869,-0.18400000,0.01950000
148870,-0.23350000,0.02800000
148871,-0.28350000,0.02250000
148872,-0.33050000,0.03350000
148873,-0.37000000,0.03350000
148874,-0.40250000,0.04150000
148875,-0.43250000,0.03350000
148876,-0.45700000,0.04450000
148877,-0.47950000,0.03900000
148878,-0.49950000,0.05000000
148879,-0.51200000,0.02800000
148880,-0.52200000,0.03050000
148881,-0.53150000,0.00350000
148882,-0.53150000,0.00600000
148883,-0.53150000,0.00100000
148884,-0.53400000,0.00100000
148885,-0.52650000,0.00100000
148886,-0.52450000,0.00100000
148887,-0.51950000,0.00100000
148888,-0.51700000,0.00100000
148889,-0.51450000,0.00100000
148890,-0.51200000,0.02800000
148891,-0.50700000,0.06650000
148892,-0.50700000,0.05250000
148893,-0.50450000,-0.01250000
148894,-0.50700000,-0.08400000
148895,-0.50700000,-0.18000000
148896,-0.50450000,-0.27600000
148897,-0.50450000,-0.31700000
148898,-0.50700000,-0.30600000
148899,-0.50700000,-0.26250000
148900,-0.50700000,-0.26250000
148901,-0.51200000,-0.25950000
148902,-0.51200000,-0.26500000
148903,-0.51700000,-0.21550000
148904,-0.51700000,-0.14700000
148905,-0.51950000,-0.06500000
148906,-0.52450000,-0.02900000
148907,-0.52900000,-0.00150000
148908,-0.53650000,0.00100000
148909,-0.53900000,0.00350000
148910,-0.54900000,0.00100000
148911,-0.55650000,0.00850000
148912,-0.56400000,0.00350000
148913,-0.57400000,0.00350000
148914,-0.57900000,0.00100000
148915,-0.59150000,0.00600000
148916,-0.59900000,0.01400000
148917,-0.60400000,0.01150000
148918,-0.61350000,0.02250000
148919,-0.61100000,0.02800000
148920,-0.61100000,0.02500000
148921,-0.59650000,0.01400000
148922,-0.57400000,0.02800000
148923,-0.53900000,0.01950000
148924,-0.48700000,0.04150000
148925,-0.41500000,0.03900000
148926,-0.33300000,0.05550000
148927,-0.23600000,0.05800000
148928,-0.12900000,0.07450000
148929,-0.01250000,0.07200000
148930,0.09950000,0.08550000
148931,0.20850000,0.08300000
148932,0.31050000,0.09650000
148933,0.39750000,0.08850000
148934,0.47200000,0.09650000
148935,0.53150000,0.08300000
148936,0.57900000,0.07750000
148937,0.60850000,0.07200000
148938,0.63100000,0.06350000
148939,0.63850000,0.05250000
148940,0.63350000,0.04150000
148941,0.62100000,0.03600000
148942,0.60350000,0.03050000
148943,0.57400000,0.02250000
148944,0.53900000,0.01700000
148945,0.49950000,0.01950000
148946,0.45450000,0.01700000
148947,0.40500000,0.01950000
148948,0.35250000,0.00900000
148949,0.29550000,0.02250000
148950,0.23600000,0.02500000
148951,0.17650000,0.03900000
148952,0.11400000,0.03050000
148953,0.04950000,0.04450000
148954,-0.01500000,0.03600000
148955,-0.08200000,0.04700000
148956,-0.14150000,0.03350000
148957,-0.19900000,0.05000000
148958,-0.25600000,0.04450000
148959,-0.30300000,0.05250000
148960,-0.35300000,0.04700000
148961,-0.39250000,0.06350000
148962,-0.43000000,0.06100000
148963,-0.46450000,0.06100000
148964,-0.48950000,0.05000000
148965,-0.51200000,0.06100000
148966,-0.53150000,0.05800000
148967,-0.54400000,0.04450000
148968,-0.55650000,0.02800000
148969,-0.55900000,0.01400000
148970,-0.56150000,0.01400000
148971,-0.56150000,0.00100000
148972,-0.56150000,0.00100000
148973,-0.55650000,0.00100000
148974,-0.55150000,0.00100000
148975,-0.54650000,0.00100000
148976,-0.54400000,0.00100000
148977,-0.53650000,0.00100000
148978,-0.53150000,0.02800000
148979,-0.52650000,0.06650000
148980,-0.52200000,0.05000000
148981,-0.51450000,-0.03200000
148982,-0.50950000,-0.09500000
148983,-0.50200000,-0.18800000
148984,-0.49700000,-0.27050000
148985,-0.48950000,-0.33050000
148986,-0.48200000,-0.30600000
148987,-0.47450000,-0.27600000
148988,-0.46450000,-0.25950000
148989,-0.46200000,-0.26500000
148990,-0.43650000,-0.27050000
148991,-0.42900000,-0.24050000
148992,-0.42200000,-0.17450000
148993,-0.41750000,-0.09250000
148994,-0.41250000,-0.04850000
148995,-0.41050000,-0.02100000
148996,-0.40550000,-0.01000000
148997,-0.40350000,-0.01250000
148998,-0.40100000,-0.02100000
148999,-0.39600000,-0.00450000
149000,-0.39400000,-0.00150000
149001,-0.39400000,0.00100000
149002,-0.39150000,-0.00700000
149003,-0.38700000,-0.00150000
149004,-0.38700000,-0.02100000
149005,-0.37950000,-0.00700000
149006,-0.37500000,-0.01000000
149007,-0.36550000,0.00100000
149008,-0.34900000,0.00100000
149009,-0.33000000,0.00100000
149010,-0.29700000,0.00100000
149011,-0.25450000,0.01150000
149012,-0.20050000,0.01700000
149013,-0.12700000,0.03050000
149014,-0.05150000,0.04150000
149015,0.03800000,0.01950000
149016,0.13450000,0.01700000
149017,0.23150000,0.02250000
149018,0.33050000,0.05800000
149019,0.42000000,0.07750000
149020,0.50250000,0.05000000
149021,0.57350000,0.03600000
149022,0.63250000,0.05550000
149023,0.67750000,0.04450000
149024,0.70550000,0.07450000
149025,0.72200000,0.04450000
149026,0.72700000,0.00100000
149027,0.72000000,0.00100000
149028,0.70350000,0.00100000
149029,0.68200000,0.00100000
149030,0.65350000,-0.00150000
149031,0.61850000,-0.02900000
149032,0.57600000,-0.02650000
149033,0.53350000,-0.02650000
149034,0.48400000,-0.00150000
149035,0.43200000,-0.02350000
149036,0.37750000,-0.03450000
149037,0.32100000,-0.03450000
149038,0.26200000,-0.03200000
149039,0.20050000,-0.04300000
149040,0.14150000,-0.02650000
149041,0.08050000,-0.01550000
149042,0.01650000,-0.02100000
149043,-0.04250000,-0.02100000
149044,-0.10150000,-0.05100000
149045,-0.15300000,-0.05400000
149046,-0.20500000,-0.05100000
149047,-0.25000000,-0.04000000
149048,-0.29250000,-0.03200000
149049,-0.33000000,0.00100000
149050,-0.36100000,-0.01250000
149051,-0.38900000,0.00050000
149052,-0.41050000,0.00600000
149053,-0.43150000,-0.00150000
149054,-0.43650000,-0.03450000
149055,-0.44550000,-0.03750000
149056,-0.45450000,-0.05100000
149057,-0.45900000,-0.05950000
149058,-0.46150000,-0.08150000
149059,-0.46150000,-0.06500000
149060,-0.45450000,-0.07600000
149061,-0.45000000,-0.07600000
149062,-0.43900000,-0.07300000
149063,-0.42750000,-0.05400000
149064,-0.41650000,-0.07300000
149065,-0.40300000,-0.07300000
149066,-0.38700000,-0.05650000
149067,-0.37150000,-0.01800000
149068,-0.35800000,-0.02900000
149069,-0.34650000,-0.08950000
149070,-0.33550000,-0.12800000
149071,-0.32850000,-0.23500000
149072,-0.32400000,-0.34700000
149073,-0.31750000,-0.39400000
149074,-0.31500000,-0.36900000
149075,-0.31050000,-0.35000000
149076,-0.30850000,-0.33050000
149077,-0.31050000,-0.33350000
149078,-0.31050000,-0.33350000
149079,-0.31500000,-0.32500000
149080,-0.31750000,-0.23750000
149081,-0.32200000,-0.13900000
149082,-0.33100000,-0.10050000
149083,-0.34450000,-0.07050000
149084,-0.35100000,-0.06500000
149085,-0.35800000,-0.10050000
149086,-0.36700000,-0.09500000
149087,-0.37600000,-0.10050000
149088,-0.38050000,-0.08150000
149089,-0.38700000,-0.07850000
149090,-0.39400000,-0.07050000
149091,-0.40500000,-0.05650000
149092,-0.41650000,-0.06200000
149093,-0.42550000,-0.07850000
149094,-0.43650000,-0.06200000
149095,-0.44350000,-0.02100000
149096,-0.45250000,-0.03200000
149097,-0.45450000,-0.03200000
149098,-0.44550000,-0.01800000
149099,-0.43000000,-0.01000000
149100,-0.40500000,-0.05100000
149101,-0.36450000,-0.05950000
149102,-0.31500000,-0.02100000
149103,-0.25000000,0.00100000
149104,-0.18250000,0.00100000
149105,-0.10150000,0.00100000
149106,-0.02250000,-0.00700000
149107,0.05600000,0.00100000
149108,0.12600000,0.02250000
149109,0.19350000,0.00600000
149110,0.24500000,0.00100000
149111,0.29000000,0.00850000
149112,0.32400000,-0.01800000
149113,0.34400000,-0.02350000
149114,0.35550000,-0.01250000
149115,0.35750000,-0.04000000
149116,0.34850000,-0.05400000
149117,0.33750000,-0.03750000
149118,0.28350000,-0.05100000
149119,0.26100000,-0.08150000
149120,0.23150000,-0.06750000
149121,0.20450000,-0.07300000
149122,0.17300000,-0.07300000
149123,0.13500000,-0.09500000
149124,0.09650000,-0.08700000
149125,0.05600000,-0.08400000
149126,0.01350000,-0.07600000
149127,-0.03150000,-0.05650000
149128,-0.08100000,-0.04000000
149129,-0.13300000,-0.07850000
149130,-0.17800000,-0.07300000
149131,-0.22750000,-0.08700000
149132,-0.27250000,-0.08700000
149133,-0.30850000,-0.08150000
149134,-0.34450000,-0.07600000
149135,-0.37150000,-0.09250000
149136,-0.39150000,-0.08700000
149137,-0.40750000,-0.07050000
149138,-0.42100000,-0.04300000
149139,-0.42750000,-0.06750000
149140,-0.43650000,-0.06500000
149141,-0.43650000,-0.06500000
149142,-0.43900000,-0.08400000
149143,-0.43650000,-0.10050000
149144,-0.43200000,-0.11150000
149145,-0.42550000,-0.11700000
149146,-0.42100000,-0.12250000
149147,-0.40950000,-0.10350000
149148,-0.40050000,-0.10050000
149149,-0.38700000,-0.08150000
149150,-0.37800000,-0.10050000
149151,-0.36450000,-0.07850000
149152,-0.35350000,-0.12800000
149153,-0.34000000,-0.14200000
149154,-0.32650000,-0.09800000
149155,-0.31500000,-0.03750000
149156,-0.30400000,-0.05950000
149157,-0.29050000,-0.16900000
149158,-0.28150000,-0.25150000
149159,-0.27450000,-0.34700000
149160,-0.26800000,-0.41600000
149161,-0.26550000,-0.41300000
149162,-0.26550000,-0.40500000
149163,-0.27250000,-0.36650000
149164,-0.28150000,-0.35550000
149165,-0.29250000,-0.34700000
149166,-0.30400000,-0.33600000
149167,-0.32400000,-0.28400000
149168,-0.34200000,-0.24050000
149169,-0.36250000,-0.19350000
149170,-0.38250000,-0.11700000
149171,-0.40050000,-0.08150000
149172,-0.42100000,-0.08150000
149173,-0.44100000,-0.08700000
149174,-0.45700000,-0.06750000
149175,-0.47250000,-0.07300000
149176,-0.48600000,-0.05950000
149177,-0.49950000,-0.06200000
149178,-0.51300000,-0.04550000
149179,-0.52650000,-0.03200000
149180,-0.53800000,-0.02100000
149181,-0.54250000,-0.03450000
149182,-0.51700000,-0.04550000
149183,-0.51900000,-0.05100000
149184,-0.52100000,-0.01800000
149185,-0.51700000,-0.01800000
149186,-0.50650000,-0.01250000
149187,-0.48750000,-0.01250000
149188,-0.45800000,0.00100000
149189,-0.41800000,0.00100000
149190,-0.37200000,0.01150000
149191,-0.32150000,0.01150000
149192,-0.26250000,0.03050000
149193,-0.20150000,0.04450000
149194,-0.13650000,0.05550000
149195,-0.07550000,0.06650000
149196,-0.01650000,0.05550000
149197,0.03600000,0.04150000
149198,0.08450000,0.05800000
149199,0.12650000,0.05250000
149200,0.16200000,0.04150000
149201,0.18950000,0.02800000
149202,0.21050000,0.00100000
149203,0.21650000,0.00850000
149204,0.21650000,0.00100000
149205,0.21050000,0.00100000
149206,0.19800000,0.00100000
149207,0.17900000,0.00100000
149208,0.16000000,-0.00700000
149209,0.13450000,-0.00150000
149210,0.10300000,-0.01250000
149211,0.06950000,-0.00150000
149212,0.03150000,-0.01000000
149213,-0.00600000,-0.00450000
149214,-0.04800000,-0.01550000
149215,-0.09200000,-0.00450000
149216,-0.13450000,-0.00700000
149217,-0.17650000,-0.00700000
149218,-0.21400000,-0.01000000
149219,-0.25000000,-0.00450000
149220,-0.28550000,0.00100000
149221,-0.31300000,0.00100000
149222,-0.34250000,0.00100000
149223,-0.36750000,0.00350000
149224,-0.39050000,0.01400000
149225,-0.41400000,0.00600000
149226,-0.43500000,0.00850000
149227,-0.45150000,0.00350000
149228,-0.46400000,0.01700000
149229,-0.47250000,0.01150000
149230,-0.47700000,0.00600000
149231,-0.47450000,-0.00700000
149232,-0.47250000,-0.01250000
149233,-0.46650000,-0.02900000
149234,-0.45800000,-0.02100000
149235,-0.44950000,-0.03450000
149236,-0.44300000,-0.02350000
149237,-0.43500000,-0.03750000
149238,-0.42650000,-0.02900000
149239,-0.42200000,-0.03750000
149240,-0.41600000,-0.02100000
149241,-0.41600000,-0.00150000
149242,-0.41400000,0.02500000
149243,-0.41150000,0.00350000
149244,-0.40950000,-0.07300000
149245,-0.40750000,-0.15000000
149246,-0.39550000,-0.26250000
149247,-0.39350000,-0.33900000
149248,-0.39350000,-0.38300000
149249,-0.39350000,-0.35000000
149250,-0.39100000,-0.33600000
149251,-0.39100000,-0.32500000
149252,-0.39100000,-0.33350000
149253,-0.38900000,-0.31400000
149254,-0.39350000,-0.28150000
149255,-0.39550000,-0.19650000
149256,-0.40000000,-0.14450000
149257,-0.40000000,-0.09250000
149258,-0.40400000,-0.08400000
149259,-0.40650000,-0.07050000
149260,-0.40650000,-0.08150000
149261,-0.40850000,-0.07300000
149262,-0.40850000,-0.07850000
149263,-0.41050000,-0.06750000
149264,-0.40850000,-0.07300000
149265,-0.41300000,-0.07050000
149266,-0.41050000,-0.07300000
149267,-0.40850000,-0.07050000
149268,-0.40400000,-0.06750000
149269,-0.40000000,-0.06200000
149270,-0.39100000,-0.05950000
149271,-0.37800000,-0.05950000
149272,-0.35650000,-0.04850000
149273,-0.32400000,-0.05100000
149274,-0.28500000,-0.04000000
149275,-0.23500000,-0.04000000
149276,-0.17200000,-0.02100000
149277,-0.10450000,-0.02650000
149278,-0.02850000,-0.01000000
149279,0.05200000,-0.00700000
149280,0.13650000,0.00100000
149281,0.21500000,-0.00450000
149282,0.28650000,0.00100000
149283,0.35600000,0.00100000
149284,0.41000000,0.00100000
149285,0.46000000,-0.01800000
149286,0.49500000,-0.02100000
149287,0.52100000,-0.04550000
149288,0.53850000,-0.05400000
149289,0.54700000,-0.07300000
149290,0.54500000,-0.07600000
149291,0.53850000,-0.09800000
149292,0.52950000,-0.10900000
149293,0.51450000,-0.12000000
149294,0.49300000,-0.12800000
149295,0.47100000,-0.13100000
149296,0.44950000,-0.14200000
149297,0.42550000,-0.14450000
149298,0.39700000,-0.16350000
149299,0.36700000,-0.16350000
149300,0.33850000,-0.16900000
149301,0.30800000,-0.17150000
149302,0.27350000,-0.17700000
149303,0.23650000,-0.18000000
149304,0.19950000,-0.20200000
149305,0.15600000,-0.19350000
149306,0.11500000,-0.20450000
149307,0.07600000,-0.18550000
149308,0.03450000,-0.19650000
149309,-0.00700000,-0.18800000
149310,-0.02150000,-0.19100000
149311,-0.05750000,-0.17150000
149312,-0.09100000,-0.19350000
149313,-0.11700000,-0.15250000
149314,-0.13850000,-0.16900000
149315,-0.15550000,-0.17700000
149316,-0.17000000,-0.17450000
149317,-0.17000000,-0.16350000
149318,-0.17450000,-0.17450000
149319,-0.17200000,-0.16050000
149320,-0.16500000,-0.20200000
149321,-0.16000000,-0.21000000
149322,-0.15300000,-0.17150000
149323,-0.14600000,-0.17450000
149324,-0.13850000,-0.20200000
149325,-0.12900000,-0.22650000
149326,-0.12200000,-0.20200000
149327,-0.11500000,-0.19350000
149328,-0.10500000,-0.15000000
149329,-0.09800000,-0.12000000
149330,-0.08850000,-0.12000000
149331,-0.08350000,-0.19350000
149332,-0.07900000,-0.25950000
149333,-0.07650000,-0.35800000
149334,-0.07650000,-0.42700000
149335,-0.07650000,-0.46250000
149336,-0.07650000,-0.44600000
149337,-0.08150000,-0.46800000
149338,-0.08150000,-0.45700000
149339,-0.08600000,-0.44350000
149340,-0.09100000,-0.42150000
149341,-0.09550000,-0.38850000
149342,-0.10050000,-0.33600000
149343,-0.10750000,-0.26500000
149344,-0.11950000,-0.20200000
149345,-0.12900000,-0.16900000
149346,-0.13850000,-0.16600000
149347,-0.15300000,-0.14750000
149348,-0.16250000,-0.15250000
149349,-0.17450000,-0.13900000
149350,-0.18400000,-0.14750000
149351,-0.19600000,-0.13900000
149352,-0.20800000,-0.15300000
149353,-0.21500000,-0.13650000
149354,-0.22500000,-0.14750000
149355,-0.23650000,-0.14200000
149356,-0.24850000,-0.15800000
149357,-0.25350000,-0.13650000
149358,-0.25600000,-0.13900000
149359,-0.24650000,-0.12000000
149360,-0.22700000,-0.12000000
149361,-0.19850000,-0.11150000
149362,-0.15050000,-0.10050000
149363,-0.09550000,-0.07050000
149364,-0.02400000,-0.11150000
149365,0.05950000,-0.10900000
149366,0.15050000,-0.08700000
149367,0.24150000,-0.06750000
149368,0.33950000,-0.06750000
149369,0.42800000,-0.07050000
149370,0.50900000,-0.05650000
149371,0.58100000,-0.05400000
149372,0.64050000,-0.05950000
149373,0.69100000,-0.07300000
149374,0.71950000,-0.07050000
149375,0.73400000,-0.08700000
149376,0.73150000,-0.08700000
149377,0.71000000,-0.07850000
149378,0.66950000,-0.09800000
149379,0.60000000,-0.12550000
149380,0.51850000,-0.12000000
149381,0.41600000,-0.12000000
149382,0.30350000,-0.12800000
149383,0.18400000,-0.14450000
149384,0.05950000,-0.13900000
149385,-0.06450000,-0.15300000
149386,-0.17700000,-0.12800000
149387,-0.28700000,-0.14450000
149388,-0.38750000,-0.13650000
149389,-0.47800000,-0.14450000
149390,-0.56650000,-0.14200000
149391,-0.65050000,-0.14750000
149392,-0.73400000,-0.13350000
149393,-0.82250000,-0.13100000
149394,-0.91350000,-0.13350000
149395,-0.99950000,-0.12250000
149396,-,-0.11450000
149397,-,-0.12250000
149398,-,-0.12550000
149399,-,-0.09500000
149400,-,-0.12550000
149401,-,-0.11700000
149402,-,-0.10900000
149403,-,-0.09250000
149404,-,-0.10350000
149405,-,-0.10050000
149406,-,-0.11700000
149407,-,-0.12000000
149408,-,-0.13900000
149409,-,-0.13650000
149410,-,-0.13650000
149411,-,-0.13650000
149412,-,-0.16050000
149413,-,-0.15000000
149414,-,-0.15000000
149415,-,-0.12000000
149416,-1.02300000,-0.09500000
149417,-1.01850000,-0.05650000
149418,-1.01150000,-0.09800000
149419,-0.99950000,-0.17700000
149420,-0.98750000,-0.24050000
149421,-0.97050000,-0.33050000
149422,-0.95400000,-0.40200000
149423,-0.93500000,-0.43250000
149424,-0.91350000,-0.40200000
149425,-0.88950000,-0.39650000
149426,-0.86800000,-0.38300000
149427,-0.84650000,-0.39400000
149428,-0.82000000,-0.39650000
149429,-0.79600000,-0.36900000
149430,-0.77450000,-0.26800000
149431,-0.75300000,-0.20450000
149432,-0.73150000,-0.15000000
149433,-0.71250000,-0.14750000
149434,-0.69550000,-0.12250000
149435,-0.68150000,-0.11700000
149436,-0.66950000,-0.10900000
149437,-0.65500000,-0.11450000
149438,-0.64800000,-0.11450000
149439,-0.63850000,-0.09800000
149440,-0.62900000,-0.07850000
149441,-0.62650000,-0.11150000
149442,-0.62150000,-0.10600000
149443,-0.61700000,-0.10900000
149444,-0.61700000,-0.10350000
149445,-0.61450000,-0.09500000
149446,-0.61700000,-0.10900000
149447,-0.61200000,-0.10050000
149448,-0.60750000,-0.09250000
149449,-0.59750000,-0.07600000
149450,-0.58550000,-0.07300000
149451,-0.56900000,-0.06500000
149452,-0.54750000,-0.05950000
149453,-0.51650000,-0.05400000
149454,-0.48050000,-0.03750000
149455,-0.44000000,-0.02100000
149456,-0.39450000,-0.03450000
149457,-0.34650000,-0.00150000
149458,-0.29900000,-0.00450000
149459,-0.24850000,-0.01800000
149460,-0.19850000,-0.02350000
149461,-0.15300000,-0.01000000
149462,-0.11250000,-0.02350000
149463,-0.07400000,-0.03200000
149464,-0.04050000,-0.06750000
149465,-0.00950000,-0.06750000
149466,0.01900000,-0.03450000
149467,0.04550000,-0.05950000
149468,0.06950000,-0.08950000
149469,0.09100000,-0.09800000
149470,0.10750000,-0.09800000
149471,0.12650000,-0.08400000
149472,0.14350000,-0.08400000
149473,0.15750000,-0.08950000
149474,0.16750000,-0.07600000
149475,0.17450000,-0.08150000
149476,0.17700000,-0.07050000
149477,0.17450000,-0.08150000
149478,0.16950000,-0.06500000
149479,0.16000000,-0.06500000
149480,0.14350000,-0.07050000
149481,0.12450000,-0.07600000
149482,0.10300000,-0.07050000
149483,0.08100000,-0.07300000
149484,0.05500000,-0.05650000
149485,0.03100000,-0.05100000
149486,0.00700000,-0.03450000
149487,-0.01900000,-0.03450000
149488,-0.04050000,-0.03200000
149489,-0.06200000,-0.03750000
149490,-0.07900000,-0.02100000
149491,-0.09800000,-0.02350000
149492,-0.11000000,-0.02100000
149493,-0.11950000,-0.03750000
149494,-0.13150000,-0.03750000
149495,-0.14100000,-0.04850000
149496,-0.15300000,-0.07050000
149497,-0.16500000,-0.06500000
149498,-0.17700000,-0.05650000
149499,-0.18900000,-0.05950000
149500,-0.20300000,-0.06500000
149501,-0.21750000,-0.04550000
149502,-0.23200000,-0.05100000
149503,-0.24400000,-0.03200000
149504,-0.25350000,-0.00450000
149505,-0.26800000,0.01400000
149506,-0.27500000,-0.04850000
149507,-0.28450000,-0.11150000
149508,-0.29900000,-0.20200000
149509,-0.31100000,-0.29500000
149510,-0.32750000,-0.35250000
149511,-0.34650000,-0.34700000
149512,-0.36800000,-0.32800000
149513,-0.39700000,-0.30350000
149514,-0.43050000,-0.30100000
149515,-0.46850000,-0.28150000
149516,-0.50700000,-0.25700000
149517,-0.55250000,-0.22650000
149518,-0.60000000,-0.16100000
149519,-0.65050000,-0.10050000
149520,-0.70050000,-0.04550000
149521,-0.74850000,-0.02900000
149522,-0.79350000,-0.02650000
149523,-0.83900000,-0.02100000
149524,-0.87750000,-0.01550000
149525,-0.91350000,-0.02350000
149526,-0.94650000,-0.01000000
149527,-0.97800000,-0.01250000
149528,-1.01150000,0.00100000
149529,-,-0.00700000
149530,-,0.00100000
149531,-,-0.00150000
149532,-,0.00100000
149533,-,0.00100000
149534,-,0.00350000
149535,-,0.00100000
149536,-,0.01950000
149537,-,0.01150000
149538,-,0.02800000
149539,-,0.03350000
149540,-,0.04700000
149541,-,0.05550000
149542,-,0.06650000
149543,-,0.07200000
149544,-1.02100000,0.07750000
149545,-0.94650000,0.08000000
149546,-0.86550000,0.07450000
149547,-0.78200000,0.07450000
149548,-0.69100000,0.06900000
149549,-0.60000000,0.06100000
149550,-0.51150000,0.05000000
149551,-0.42550000,0.04450000
149552,-0.33950000,0.02250000
149553,-0.25600000,0.01950000
149554,-0.18150000,0.00350000
149555,-0.10750000,0.00850000
149556,-0.04300000,0.00100000
149557,0.01650000,0.00100000
149558,0.06950000,-0.00450000
149559,0.11450000,0.00100000
149560,0.15750000,-0.00700000
149561,0.20100000,0.00100000
149562,0.23900000,-0.00700000
149563,0.27000000,0.00100000
149564,0.29650000,-0.00700000
149565,0.30850000,-0.00450000
149566,0.54700000,-0.00700000
149567,0.53750000,-0.00150000
149568,0.52050000,-0.00150000
149569,0.49450000,0.00100000
149570,0.45850000,0.00100000
149571,0.41550000,0.00350000
149572,0.36750000,0.00350000
149573,0.32200000,0.00600000
149574,0.27700000,0.00850000
149575,0.23150000,0.01150000
149576,0.19050000,0.01700000
149577,0.15250000,0.01150000
149578,0.11650000,0.01950000
149579,0.08300000,0.00600000
149580,0.05700000,0.00600000
149581,0.03750000,-0.00700000
149582,0.01600000,-0.01000000
149583,0.00400000,-0.02100000
149584,-0.00750000,-0.01250000
149585,-0.01500000,-0.02650000
149586,-0.01950000,-0.02100000
149587,-0.02200000,-0.02900000
149588,-0.02700000,-0.02350000
149589,-0.03150000,-0.03200000
149590,-0.03400000,-0.01550000
149591,-0.03650000,0.00600000
149592,-0.04100000,0.04450000
149593,-0.04600000,0.00350000
149594,-0.04850000,-0.06750000
149595,-0.05550000,-0.15000000
149596,-0.05550000,-0.25950000
149597,-0.05800000,-0.33900000
149598,-0.05550000,-0.35800000
149599,-0.05050000,-0.32800000
149600,-0.04850000,-0.30900000
149601,-0.04100000,-0.29250000
149602,-0.03400000,-0.29250000
149603,-0.02700000,-0.26800000
149604,-0.01750000,-0.23750000
149605,-0.01000000,-0.15550000
149606,0.00200000,-0.09800000
149607,0.00900000,-0.04300000
149608,0.01600000,-0.03450000
149609,0.02350000,-0.01250000
149610,0.02600000,-0.02100000
149611,0.03050000,-0.01800000
149612,0.03050000,-0.02100000
149613,0.03300000,-0.00150000
149614,0.03300000,-0.01250000
149615,0.02800000,-0.00150000
149616,0.02600000,-0.00700000
149617,0.02600000,-0.00150000
149618,0.02350000,-0.00450000
149619,0.02350000,0.00100000
149620,0.02350000,0.00100000
149621,0.02800000,0.00350000
149622,0.04250000,0.00350000
149623,0.06150000,0.00600000
149624,0.08800000,0.01700000
149625,0.12600000,0.01400000
149626,0.17650000,0.03050000
149627,0.23350000,0.03050000
149628,0.30050000,0.05250000
149629,0.37250000,0.05000000
149630,0.33300000,0.06650000
149631,0.38800000,0.05800000
149632,0.44150000,0.07200000
149633,0.48900000,0.06650000
149634,0.53000000,0.07450000
149635,0.56200000,0.05800000
149636,0.58850000,0.05250000
149637,0.60650000,0.03600000
149638,0.61500000,0.04150000
149639,0.62050000,0.01950000
149640,0.61700000,0.01400000
149641,0.61350000,0.00350000
149642,0.60250000,0.00100000
149643,0.59050000,-0.00150000
149644,0.57450000,0.00100000
149645,0.55500000,-0.00150000
149646,0.53350000,-0.00450000
149647,0.50850000,-0.00450000
149648,0.48400000,-0.00700000
149649,0.45350000,-0.00700000
149650,0.42200000,-0.01250000
149651,0.39150000,-0.00700000
149652,0.35600000,-0.01550000
149653,0.32450000,-0.00700000
149654,0.28700000,-0.01550000
149655,0.25350000,-0.00150000
149656,0.22300000,-0.01000000
149657,0.18950000,0.00100000
149658,0.15950000,0.00100000
149659,0.13100000,0.00100000
149660,0.10800000,-0.00150000
149661,0.08650000,0.00350000
149662,0.06550000,0.00100000
149663,0.04950000,0.00850000
149664,0.03700000,0.00100000
149665,0.02800000,0.00850000
149666,0.01950000,0.00600000
149667,0.01400000,0.00850000
149668,0.00850000,-0.00150000
149669,0.00500000,-0.00700000
149670,0.00350000,-0.02100000
149671,-0.00200000,-0.02650000
149672,-0.00550000,-0.02650000
149673,-0.00750000,-0.02650000
149674,-0.01100000,-0.02650000
149675,-0.01450000,-0.02650000
149676,-0.01450000,-0.02100000
149677,-0.02000000,-0.02900000
149678,-0.02500000,-0.00700000
149679,-0.03050000,0.01450000
149680,-0.03550000,0.04450000
149681,-0.04300000,-0.00700000
149682,-0.04650000,-0.07850000
149683,-0.05150000,-0.15250000
149684,-0.05500000,-0.24050000
149685,-0.05500000,-0.32250000
149686,-0.05700000,-0.33600000
149687,-0.05700000,-0.31150000
149688,-0.05700000,-0.27350000
149689,-0.05700000,-0.27900000
149690,-0.05500000,-0.27050000
149691,-0.05500000,-0.26800000
149692,-0.05350000,-0.21550000
149693,-0.05150000,-0.14150000
149694,-0.05150000,-0.08150000
149695,-0.05350000,-0.04300000
149696,-0.05350000,-0.02900000
149697,-0.05350000,-0.02350000
149698,-0.05500000,-0.01800000
149699,-0.05350000,-0.01550000
149700,-0.05500000,-0.01550000
149701,-0.05700000,-0.01250000
149702,-0.05900000,-0.01550000
149703,-0.05900000,-0.01000000
149704,-0.06050000,-0.01550000
149705,-0.06400000,-0.00150000
149706,-0.06750000,-0.01000000
149707,-0.06950000,0.00100000
149708,-0.06600000,-0.00700000
149709,-0.06250000,0.00100000
149710,-0.05350000,0.00100000
149711,-0.03750000,0.00100000
149712,-0.00900000,0.00100000
149713,0.02300000,0.01700000
149714,0.06350000,0.00850000
149715,0.11300000,0.02500000
149716,0.16650000,0.02500000
149717,0.22500000,0.04450000
149718,0.28350000,0.04150000
149719,0.33850000,0.05550000
149720,0.38800000,0.05250000
149721,0.43250000,0.06100000
149722,0.46950000,0.05550000
149723,0.49800000,0.04700000
149724,0.51950000,0.04450000
149725,0.53550000,0.03050000
149726,0.54250000,0.02500000
149727,0.54250000,0.01150000
149728,0.53700000,0.01150000
149729,0.52650000,0.00100000
149730,0.51400000,0.00100000
149731,0.49800000,-0.00700000
149732,0.48050000,-0.00150000
149733,0.45900000,-0.01000000
149734,0.43600000,0.00100000
149735,0.41300000,-0.01250000
149736,0.38450000,-0.00150000
149737,0.35600000,-0.01550000
149738,0.32800000,-0.00450000
149739,0.29600000,-0.01550000
149740,0.26400000,-0.00450000
149741,0.23200000,-0.01550000
149742,0.20000000,-0.00450000
149743,0.17200000,-0.01550000
149744,0.14150000,-0.00700000
149745,0.11500000,-0.00450000
149746,0.09000000,0.00100000
149747,0.06550000,0.00100000
149748,0.04250000,-0.00150000
149749,0.02450000,0.00100000
149750,0.00700000,0.00350000
